Time since start in ms ,ACCELEROMETER X (m/s²),ACCELEROMETER Y (m/s²),ACCELEROMETER Z (m/s²)
18,-0.096,-0.287,9.95
78,-0.259,-0.287,9.787
137,-0.249,-0.488,9.596
197,-0.115,-0.306,10.065
257,-0.22,-0.268,9.74
317,-0.192,-0.469,9.548
378,-0.124,-0.278,10.027
437,-0.287,-0.316,9.74
498,-0.22,-0.46,9.596
558,-0.144,-0.239,9.969
613,-0.144,-0.287,9.673
617,-0.259,-0.287,9.673
678,-0.192,-0.508,9.548
737,-0.105,-0.297,9.989
798,-0.239,-0.23,9.768
853,-0.249,-0.479,9.5
913,-0.134,-0.297,10.027
978,-0.239,-0.249,9.874
1038,-0.249,-0.536,9.424
1098,-0.077,-0.431,9.874
1158,-0.134,-0.182,9.998
1218,-0.316,-0.201,9.51
1281,-0.259,-0.373,9.471
1336,-0.134,-0.412,9.883
1393,-0.182,-0.431,9.864
1453,-0.124,-0.498,9.519
1520,-0.124,-0.239,9.893
1578,-0.249,-0.134,9.816
1634,-0.239,-0.402,9.51
1698,-0.163,-0.508,9.74
1757,-0.144,-0.354,9.864
1823,-0.268,-0.259,9.855
1897,-0.048,-0.306,9.922
1957,-0.268,-0.306,9.73
2018,-0.201,-0.412,9.481
2077,-0.115,-0.278,10.046
2138,-0.268,-0.23,9.922
2193,-0.201,-0.431,9.452
2258,-0.134,-0.421,9.998
2317,-0.211,-0.259,9.874
2373,-0.316,-0.259,9.577
2437,-0.153,-0.402,9.491
2497,-0.077,-0.306,9.912
2557,-0.383,-0.287,9.874
2613,-0.182,-0.441,9.539
2678,-0.096,-0.316,9.979
2733,-0.23,-0.239,9.941
2794,-0.211,-0.431,9.433
2857,-0.086,-0.364,9.922
2917,-0.182,-0.259,9.874
2977,-0.268,-0.46,9.51
3033,-0.144,-0.383,9.634
3098,-0.163,-0.172,9.95
3157,-0.306,-0.287,9.644
3278,-0.172,-0.297,9.864
3337,-0.268,-0.441,9.567
3397,-0.144,-0.431,9.778
3458,-0.192,-0.211,10.046
3507,-0.192,-0.259,9.979
3508,-0.096,-0.259,9.979
3577,-0.144,-0.393,9.845
3637,-0.172,-0.278,10.008
3698,-0.249,-0.469,9.376
3753,-0.182,-0.373,9.941
3813,-0.172,-0.172,9.902
3873,-0.211,-0.393,9.443
3938,-0.182,-0.45,9.855
3998,-0.192,-0.249,9.96
4057,-0.22,-0.393,9.443
4117,-0.144,-0.402,9.759
4178,-0.287,-0.316,10.353
4237,-0.22,-0.364,9.404
4297,-0.192,-0.431,9.807
4358,-0.105,-0.268,9.864
4417,-0.268,-0.412,9.529
4477,-0.22,-0.46,9.74
4538,-0.153,-0.22,9.96
4593,-0.23,-0.326,9.586
4657,-0.182,-0.469,9.663
4718,-0.115,-0.278,9.979
4778,-0.23,-0.316,9.701
4839,-0.259,-0.421,9.558
4893,-0.172,-0.23,9.931
4957,-0.172,-0.297,9.634
5018,-0.163,-0.488,9.586
5077,-0.144,-0.345,9.922
5133,-0.239,-0.326,9.701
5197,-0.201,-0.421,9.606
5257,-0.172,-0.182,9.998
5313,-0.172,-0.335,9.586
5317,-0.211,-0.335,9.586
5377,-0.172,-0.517,9.692
5433,-0.134,-0.259,9.931
5493,-0.278,-0.278,9.663
5555,-0.211,-0.421,9.701
5618,-0.144,-0.278,9.998
5678,-0.201,-0.354,9.711
5733,-0.182,-0.46,9.701
5799,-0.201,-0.22,9.998
5857,-0.287,-0.297,9.558
5917,-0.163,-0.45,9.701
5978,-0.163,-0.249,9.902
6033,-0.239,-0.441,9.414
6092,-0.239,-0.45,9.845
6101,-0.192,-0.45,9.845
6153,-0.163,-0.192,9.941
6213,-0.192,-0.393,9.452
6277,-0.172,-0.421,9.883
6338,-0.23,-0.297,9.912
6397,-0.201,-0.469,9.357
6453,-0.086,-0.297,9.912
6517,-0.22,-0.153,9.883
6573,-0.268,-0.46,9.395
6637,-0.172,-0.479,9.941
6697,-0.144,-0.278,9.969
6753,-0.201,-0.421,9.414
6820,-0.144,-0.306,9.864
6873,-0.23,-0.211,9.989
6937,-0.239,-0.441,9.462
6993,-0.153,-0.469,9.711
7057,-0.163,-0.249,10.075
7117,-0.259,-0.326,9.548
7173,-0.192,-0.335,9.816
7233,-0.124,-0.22,9.893
7297,-0.22,-0.46,9.586
7357,-0.172,-0.498,9.855
7417,-0.22,-0.259,9.989
7478,-0.259,-0.335,9.51
7537,-0.124,-0.364,9.653
7598,-0.172,-0.239,9.922
7657,-0.345,-0.431,9.529
7713,-0.182,-0.479,9.749
7776,-0.086,-0.287,10.065
7832,-0.086,-0.287,9.74
7837,-0.22,-0.239,9.74
7897,-0.22,-0.393,9.471
7953,-0.144,-0.287,9.96
8017,-0.268,-0.335,9.979
8077,-0.134,-0.517,9.462
8138,-0.067,-0.345,9.902
8197,-0.239,-0.211,9.941
8257,-0.287,-0.354,9.5
8317,-0.115,-0.393,9.673
8377,-0.057,-0.316,9.835
8433,-0.316,-0.441,9.692
8497,-0.326,-0.479,9.682
8557,-0.086,-0.22,10.132
8613,-0.163,-0.249,9.692
8677,-0.259,-0.402,9.443
8733,-0.259,-0.364,10.008
8818,-0.048,-0.306,9.941
8859,-0.249,-0.335,9.845
8918,-0.297,-0.345,9.529
8978,-0.335,-0.393,9.529
9037,-0.23,-0.421,9.539
9098,-0.144,-0.431,9.634
9157,-0.134,-0.431,9.711
9213,-0.134,-0.373,9.653
9217,-0.182,-0.373,9.653
9278,-0.259,-0.316,9.644
9338,-0.211,-0.354,9.625
9397,-0.144,-0.335,9.845
9463,-0.144,-0.306,9.95
9537,-0.239,-0.335,9.816
9597,-0.22,-0.316,9.845
9658,-0.23,-0.306,9.74
9718,-0.144,-0.402,9.395
9779,-0.172,-0.354,9.941
9841,-0.211,-0.306,9.816
9898,-0.172,-0.431,9.433
9957,-0.163,-0.326,10.104
10013,-0.297,-0.306,9.835
10073,-0.153,-0.441,9.462
10137,-0.153,-0.259,9.826
10197,-0.201,-0.364,9.471
10257,-0.134,-0.469,9.883
10313,-0.192,-0.268,9.893
10378,-0.172,-0.412,9.347
10437,-0.172,-0.326,10.017
10497,-0.23,-0.211,9.73
10558,-0.192,-0.45,9.385
10618,-0.134,-0.393,9.931
10672,-0.297,-0.354,9.72
10733,-0.105,-0.373,9.615
10796,-0.211,-0.201,9.625
10857,-0.115,-0.373,9.414
10917,-0.153,-0.402,10.18
10973,-0.268,-0.335,9.701
11038,0.345,-0.45,9.692
11098,0.661,-0.335,10.238
11158,0.479,-0.402,9.27
11217,0.594,-0.354,10.276
11278,0.46,-0.192,10.008
11333,0.412,-0.431,9.232
11397,0.565,-0.249,10.123
11458,0.498,-0.268,9.711
11518,0.46,-0.45,9.797
11573,0.737,-0.278,10.142
11633,1.101,-0.259,9.701
11708,1.293,-0.354,9.874
11753,1.427,-0.278,10.161
11818,2.184,-0.335,9.491
11877,2.03,-0.268,9.768
11933,2.164,-0.239,10.123
11998,2.279,-0.144,9.749
12053,2.375,-0.182,9.816
12118,2.337,-0.172,9.855
12177,2.308,-0.163,10.017
12237,2.078,-0.393,9.778
12307,1.915,-0.335,9.979
12378,1.82,-0.383,9.816
12438,1.772,-0.373,9.893
12500,2.021,-0.172,9.625
12553,2.069,-0.249,9.72
12617,1.925,-0.23,9.682
12677,1.456,-0.144,10.056
12737,1.427,-0.144,10.065
12817,1.312,-0.268,9.51
12878,1.561,-0.594,9.72
12937,1.781,-0.814,9.864
12997,1.8,-0.833,9.692
13053,1.59,-1.053,10.036
13117,1.322,-1.063,10.123
13177,1.168,-1.36,9.232
13237,1.456,-1.532,9.969
13298,1.647,-1.465,10.046
13356,1.034,-1.053,10.266
13418,1.006,-1.178,8.744
13477,1.283,-1.322,9.969
13538,0.699,-2.088,10.19
13598,1.341,-1.59,9.041
13658,0.536,-2.519,10.918
13713,1.101,-2.241,9.548
13774,1.235,-2.308,9.443
13833,0.287,-2.586,10.937
13897,0.9,-2.672,10.132
13953,1.389,-2.327,9.27
14017,0.737,-2.145,8.954
14077,0.757,-2.337,9.155
14137,0.67,-2.231,9.357
14197,1.092,-3.017,9.232
14258,1.341,-2.059,9.012
14313,1.025,-2.155,9.213
14373,0.948,-2.48,8.246
14437,1.274,-2.5,9.711
14493,0.948,-3.026,10.046
14558,-0.249,-3.515,10.726
14613,-0.249,-2.978,9.95
14617,0.057,-2.978,9.95
14683,0.766,-2.854,11.061
14744,0.22,-2.844,9.5
14797,0.939,-2.796,8.983
14857,0.01,-3.199,9.127
14917,0.622,-2.72,9.529
14977,1.044,-2.768,10.783
15037,0.852,-3.668,9.539
15097,0.986,-2.998,9.864
15158,0.45,-2.423,9.28
15217,0.862,-1.906,10.017
15277,0.747,-2.452,10.755
15338,0.23,-2.557,9.548
15397,0.383,-1.887,9.242
15453,1.618,-2.538,11.09
15517,0.402,-2.643,10.467
15578,0.096,-2.634,9.749
15637,1.015,-2.672,11.013
15698,0.613,-2.049,9.347
15757,0.69,-1.571,8.657
15815,0.029,-2.049,10.372
15878,0.757,-1.992,10.755
15937,0.622,-1.657,9.74
15998,-0.124,-0.833,10.554
16057,2.26,-3.917,8.849
16117,1.551,-1.906,8.945
16177,-1.159,-2.251,10.362
16238,0.575,-2.691,9.376
16298,1.207,-3.093,10.822
16362,0.728,-2.097,11.492
16437,-0.335,-2.222,11.061
16497,-0.776,-2.624,7.211
16558,1.523,-0.622,9.29
16614,1.551,-0.91,9.902
16673,-0.038,-1.705,9.165
16737,1.561,-2.557,9.069
16803,0.814,-2.758,9.634
16858,0.871,-2.959,10.86
16917,0.373,-3.869,9.922
16977,-0.22,-3.563,10.544
17037,1.628,-0.383,9.184
17098,-0.124,-0.766,9.73
17157,0.824,-0.919,9.098
17218,0.737,-0.757,9.759
17277,1.82,-0.862,9.328
17333,0.239,-5.066,11.253
17393,0.862,-4.654,11.291
17463,1.686,-2.519,10.602
17537,-0.172,-1.398,7.891
17597,0.278,-0.163,8.552
17657,2.241,-1.006,8.533
17717,1.551,-1.408,11.856
17773,1.12,-3.151,11.588
17837,0.843,-2.643,9.462
17897,1.293,-2.049,10.573
17958,1.034,-1.475,10.851
18017,0.996,-0.871,8.437
18078,0.575,-2.327,8.744
18137,1.149,-1.638,10.056
18193,2.327,-0.067,8.801
18257,2.471,0.134,8.571
18326,1.8,-0.728,9.606
18378,1.58,0.527,9.969
18433,0.22,-0.929,9.874
18493,0.22,-0.115,10.592
18498,0.316,-0.115,10.592
18558,0.785,-2.174,10.324
18618,1.82,-2.279,9.797
18678,1.762,-1.628,9.519
18737,1.283,-1.235,7.834
18803,0.431,0.345,12.22
18857,2.452,-1.638,6.914
18917,2.883,0.0,8.131
18973,2.26,-1.226,9.73
19037,2.356,-0.421,10.084
19097,2.164,-0.239,8.983
19153,1.034,0.23,9.357
19213,1.724,-1.015,10.956
19272,1.724,-0.326,8.83
19278,0.115,-0.326,8.83
19338,0.632,-0.508,10.027
19398,0.766,0.0,9.203
19457,2.27,-0.852,9.395
19513,1.226,-0.431,9.462
19577,2.672,0.144,8.811
19633,2.27,0.01,9.318
19697,2.088,0.239,10.036
19758,2.538,0.029,9.96
19817,1.159,-0.508,10.027
19873,1.781,-0.46,11.128
19938,1.111,-0.211,9.376
19997,1.657,-0.46,10.036
20057,1.925,-0.488,10.487
20113,1.925,-0.249,10.764
20118,0.996,-0.249,10.764
20177,1.781,0.651,9.634
20237,1.389,-0.929,12.469
20293,1.494,-0.364,10.41
20357,1.973,-0.948,9.72
20413,-0.144,-0.776,11.377
20477,0.613,1.456,8.092
20537,0.939,2.011,8.926
20597,2.873,0.642,7.575
20657,1.513,0.833,10.075
20718,0.412,0.402,12.708
20777,0.029,0.278,10.439
20838,1.714,0.038,11.674
20897,0.192,-0.488,10.592
20957,0.862,0.0,9.471
21013,1.59,0.517,10.429
21078,1.484,-0.029,9.404
21138,0.239,0.996,8.303
21197,0.278,0.239,7.843
21258,0.632,0.153,8.82
21317,1.446,-1.044,8.159
21377,1.504,0.134,9.117
21433,1.111,0.105,9.433
21497,2.155,0.239,13.015
21557,0.919,0.373,7.834
21618,0.804,0.297,9.347
21677,1.81,-1.293,9.29
21738,0.737,-0.737,11.703
21798,1.504,-0.536,9.73
21858,1.025,0.029,13.024
21917,1.982,0.278,8.303
21977,0.709,-0.019,11.167
22037,2.557,-0.594,6.206
22098,2.375,-0.939,6.838
22157,2.356,-0.192,8.543
22217,0.412,-0.153,9.864
22277,1.714,0.239,9.567
22338,0.22,-0.268,9.088
22397,-0.536,0.891,7.221
22457,0.709,0.115,10.008
22518,0.661,-0.105,8.581
22577,2.375,-0.891,11.052
22637,0.948,-0.45,8.973
22697,1.408,0.632,10.171
22757,0.843,-0.259,9.864
22817,1.015,-1.178,8.648
22877,1.053,-0.239,8.198
22937,0.575,-0.747,11.042
22992,0.795,0.527,10.18
23058,-0.22,1.14,7.566
23117,2.662,0.297,8.973
23177,1.12,-0.441,9.29
23237,0.441,0.316,9.663
23297,0.728,-0.441,8.763
23357,2.672,0.306,8.772
23418,1.389,-0.306,10.18
23477,0.345,0.249,8.226
23538,0.144,0.824,11.473
23597,0.862,-0.067,10.247
23658,1.034,-0.268,9.443
23718,0.891,-0.555,9.328
23783,1.599,-0.23,8.887
23837,2.222,0.45,8.14
23897,1.638,-0.728,8.753
23953,2.356,0.622,9.462
24018,1.609,1.14,10.573
24073,2.519,-3.132,9.136
24138,0.479,0.364,9.395
24198,0.038,1.073,14.222
24257,-0.757,1.025,9.519
24317,0.747,0.843,9.778
24373,1.437,1.159,9.491
24433,1.829,1.542,8.581
24497,-0.201,-1.226,8.236
24553,-0.201,-1.226,14.222
24558,0.747,0.402,14.222
24618,2.5,0.393,12.584
24689,1.12,0.096,11.214
24757,0.891,1.427,8.437
24817,1.12,1.379,9.06
24877,0.259,1.073,9.912
24938,0.699,0.086,10.228
24993,2.174,-0.977,8.37
25057,2.969,1.044,7.183
25113,0.096,1.082,10.659
25177,2.337,-0.201,9.002
25237,1.657,1.599,8.811
25297,1.686,1.322,10.295
25357,1.599,-1.188,10.094
25417,0.469,-0.9,10.391
25473,0.709,-0.019,11.645
25537,1.274,0.163,10.228
25598,1.848,1.427,7.412
25657,0.977,0.881,9.787
25717,0.45,0.306,9.155
25777,1.724,-0.163,9.203
25837,1.523,-0.517,8.399
25897,0.757,-0.479,12.392
25958,1.178,0.402,8.887
26018,0.833,-0.287,9.117
26077,0.814,0.057,10.4
26137,1.657,0.881,8.207
26198,0.297,-0.316,9.539
26257,0.488,-0.393,12.842
26318,1.848,-0.354,11.483
26378,1.082,-1.14,9.902
26438,0.249,-0.584,11.109
26497,1.666,-0.977,10.046
26557,1.791,-0.862,8.811
26618,1.465,-1.982,8.543
26677,1.791,-0.814,9.529
26738,0.67,-1.599,8.954
26798,1.398,-1.226,9.424
26857,1.302,-0.69,10.697
26917,0.68,-1.58,10.324
26973,0.68,0.345,11.387
26977,-1.264,0.345,11.387
27033,0.163,-1.082,10.774
27098,0.383,-1.456,13.915
27157,2.184,-1.628,8.169
27218,1.657,-1.302,9.318
27277,1.896,-0.019,10.132
27337,5.44,2.653,14.394
27398,0.871,0.45,11.914
27453,-1.36,1.513,9.586
27517,1.13,-1.81,8.993
27577,-0.565,-1.034,10.228
27637,1.188,-0.919,8.571
27697,1.188,0.891,8.571
27758,1.551,-0.795,10.602
27823,3.247,0.086,11.626
27878,1.858,-2.116,9.51
27933,2.796,-0.632,12.345
27993,0.996,-0.345,9.931
28057,1.992,-1.35,9.596
28118,1.915,-1.484,10.439
28173,0.651,-2.452,9.395
28237,0.613,-2.327,9.462
28299,0.613,-0.278,10.745
28303,1.561,-0.278,10.745
28360,1.341,-0.019,9.06
28417,1.714,0.0,8.619
28478,1.915,-1.111,9.108
28533,1.743,-0.632,11.214
28598,0.881,-1.858,12.21
28662,1.408,-1.073,10.602
28717,1.686,-0.268,10.065
28778,2.212,0.22,9.347
28833,0.383,-0.891,8.686
28893,0.967,-0.373,6.646
28957,1.446,-1.369,9.299
29017,1.867,0.163,8.504
29077,1.111,-0.115,9.165
29137,1.638,0.0,10.851
29193,2.452,0.096,8.025
29253,1.906,0.105,9.337
29318,1.398,-0.278,10.956
29377,0.441,-0.134,10.257
29438,1.369,-0.45,9.701
29497,1.638,1.283,10.036
29557,0.977,0.919,9.711
29613,1.025,0.527,9.931
29677,1.188,0.316,8.849
29738,1.973,-0.287,9.098
29807,1.302,-0.594,9.634
29860,1.235,1.178,10.343
29917,1.188,-0.364,9.452
29973,1.188,0.105,8.475
29977,1.379,0.105,8.475
30038,1.762,-0.115,9.088
30098,0.996,0.431,8.82
30153,0.996,0.699,9.558
30157,0.986,0.699,9.558
30214,1.733,0.91,9.462
30282,-0.575,-0.69,10.017
30337,0.967,0.766,3.706
30398,1.925,0.546,10.918
30455,1.963,0.441,9.491
30534,0.172,1.915,9.558
30578,1.12,1.283,9.826
30637,0.038,0.862,8.715
30697,2.145,0.0,9.701
30757,2.049,0.939,8.274
30833,1.753,0.555,9.711
30897,1.676,1.245,10.937
30957,0.613,1.379,8.6
31013,1.178,0.383,9.088
31077,1.053,0.757,8.82
31133,0.757,0.488,8.926
31193,0.757,0.622,9.989
31198,0.622,0.622,9.989
31254,1.494,1.389,10.726
31317,1.044,0.795,9.117
31377,0.431,-0.057,6.981
31438,0.613,0.383,8.811
31502,-0.517,-0.144,9.902
31577,0.278,0.91,9.098
31633,-0.766,-0.105,10.956
31693,-0.326,-0.287,10.774
31763,-1.58,0.096,10.851
31823,-0.814,-0.086,10.764
31881,-0.958,0.517,10.362
31945,0.632,-0.067,8.179
31997,-0.373,-1.015,8.351
32057,-0.919,0.421,6.981
32117,-0.086,0.278,9.318
32177,-1.283,0.278,9.002
32233,-1.753,0.115,10.515
32293,-1.274,-0.278,11.645
32357,-0.871,1.015,9.998
32424,-0.919,0.019,10.209
32478,-0.364,0.192,8.61
32535,-0.498,0.795,11.31
32593,-1.149,1.073,11.971
32659,-0.038,0.326,9.567
32718,0.0,0.651,10.985
32773,0.077,0.249,8.811
32833,-2.241,0.115,9.376
32898,-0.594,-0.69,10.764
32957,-0.115,-0.23,10.774
33013,-0.01,0.057,8.408
33078,0.479,0.249,11.071
33138,-2.749,0.939,11.128
33197,-2.375,2.126,9.108
33257,0.182,-0.986,10.975
33317,-0.891,-0.603,8.112
33377,-1.369,-0.718,7.977
33438,-0.632,0.498,9.874
33498,-0.661,-0.345,9.835
33558,0.124,0.603,7.843
33613,-1.293,-0.22,11.779
33673,-0.776,-0.249,10.745
33733,-0.144,0.326,10.142
33798,0.479,0.785,9.098
33857,-0.632,-0.105,10.985
33917,-0.345,-0.192,10.965
33973,-0.249,-0.862,9.615
34038,-0.575,-0.335,9.874
34093,-0.651,0.182,10.563
34157,-0.278,-0.163,11.138
34217,-1.053,-0.249,10.008
34278,-1.111,-0.345,9.424
34338,-0.527,-0.038,7.556
34393,-0.517,0.575,9.165
34458,-0.278,0.048,10.64
34513,-0.278,0.239,10.266
34518,-0.891,0.239,10.266
34578,-0.871,-0.124,11.387
34642,-1.369,0.01,10.956
34703,-1.322,-0.01,10.496
34758,-1.111,0.67,8.792
34817,-1.513,-0.172,9.529
34877,-1.101,0.575,9.548
34938,-1.36,1.101,8.859
34997,-1.666,-0.144,10.63
35057,-0.364,-0.23,9.663
35117,-0.977,0.029,9.146
35177,-0.967,-0.546,9.041
35233,-1.188,0.843,8.581
35307,-1.207,-0.881,10.199
35378,-0.747,0.134,10.276
35433,-1.111,0.977,9.261
35497,-0.862,0.23,8.61
35558,-0.488,0.096,10.276
35617,-1.053,0.067,9.682
35677,-0.508,-0.718,9.644
35738,-0.441,-0.019,9.424
35798,-1.168,-0.967,8.954
35853,-1.159,-0.546,10.171
35913,-2.069,-0.345,9.816
35977,-1.331,0.048,9.28
36038,-0.536,0.01,9.874
36093,-0.565,0.402,9.309
36157,-0.287,0.23,9.012
36213,-0.115,-0.536,9.203
36272,-0.565,-0.335,9.539
36338,-0.383,-0.757,9.51
36393,-0.335,-0.46,9.711
36453,-0.699,0.134,10.276
36517,-0.91,-0.134,9.586
36574,-0.575,0.335,9.711
36638,-0.651,0.335,8.954
36698,-1.082,-0.057,9.29
36753,-1.293,-0.479,9.644
36813,-1.197,-0.287,9.912
36878,-1.13,-0.259,9.586
36937,-1.312,-0.105,9.797
36998,-1.006,0.115,9.481
37053,-0.804,-0.029,9.845
37113,-1.312,-0.22,10.027
37177,-0.996,-0.115,9.96
37238,-0.69,-0.077,9.644
37292,-0.642,-0.019,9.433
37353,-0.335,0.096,9.644
37423,-0.565,0.115,9.759
37474,-0.517,0.0,10.257
37537,-0.642,-0.268,9.826
37593,-0.421,-0.383,9.395
37657,-0.096,-0.268,9.912
37717,-0.096,-0.335,8.696
37776,0.057,-0.144,9.519
37838,-0.144,-0.038,9.481
37897,-0.268,0.239,9.979
37952,-0.268,0.469,10.008
37958,-0.364,0.469,10.008
38013,-0.575,-0.019,9.969
38077,-0.297,-0.077,9.673
38142,-0.354,-0.201,10.113
38197,-0.364,-0.23,9.615
38258,-0.373,0.105,10.151
38317,-0.297,-0.048,9.194
38378,-0.124,0.144,9.596
38438,-0.287,0.0,9.328
38497,-0.23,0.077,9.606
38558,-0.373,0.057,9.96
38618,-0.268,-0.029,9.615
38677,-0.45,0.029,10.113
38738,-0.527,-0.287,9.452
38803,-0.69,-0.086,9.912
38858,-0.9,-0.268,9.5
38917,-0.785,-0.048,9.644
38973,-0.785,-0.01,10.017
38977,-1.015,-0.01,10.017
39037,-0.747,-0.029,9.404
39097,-0.9,0.086,10.084
39153,-0.766,-0.249,9.433
39217,-0.699,-0.077,9.692
39277,-0.737,-0.297,9.366
39338,-0.68,-0.038,9.72
39404,-0.747,-0.086,9.749
39473,-0.776,-0.067,9.989
39537,-0.651,0.0,9.625
39598,-0.709,0.067,10.161
39664,-0.737,-0.086,9.357
39717,-0.785,0.057,9.902
39803,-0.862,-0.096,9.27
39833,-0.862,0.096,9.96
39838,-0.871,0.096,9.96
39893,-0.919,0.0,9.309
39957,-0.814,0.115,9.73
40013,-0.776,-0.077,9.27
40077,-0.804,0.0,10.008
40137,-0.824,-0.057,9.385
40193,-0.824,0.019,10.161
40198,-0.622,0.019,10.161
40258,0.153,0.0,9.816
40321,0.211,0.01,10.305
40397,-0.239,-0.057,9.883
40455,-0.048,0.029,10.113
40518,0.259,-0.086,9.328
40573,0.086,-0.038,10.094
40633,0.469,-0.124,9.883
40697,0.441,0.0,9.969
40753,0.412,-0.115,9.299
40817,0.393,0.0,10.065
40877,0.316,-0.048,9.586
40933,0.287,0.0,10.132
40998,0.306,0.0,9.749
41053,0.096,-0.096,9.663
41117,0.316,0.01,9.73
41178,0.239,-0.086,9.404
41237,0.316,-0.038,9.912
41303,0.306,0.019,9.701
41357,0.508,-0.134,9.395
41417,0.843,-0.201,9.653
41477,0.958,-0.124,9.989
41533,1.437,-0.115,9.653
41598,1.848,-0.316,10.726
41657,2.538,-0.192,9.606
41718,2.72,-0.22,9.701
41778,3.017,-0.393,9.864
41838,3.17,-0.651,9.634
41897,3.122,-0.939,9.577
41958,2.863,-0.958,10.41
42017,2.289,-1.226,10.582
42077,3.467,-1.389,9.424
42133,1.714,-1.714,9.606
42207,-0.077,-2.059,12.517
42277,1.034,-0.919,11.875
42338,1.322,-0.891,11.492
42397,1.705,-1.35,9.902
42457,2.729,-1.666,9.347
42518,2.595,-2.002,8.792
42578,1.925,-1.906,10.008
42637,2.241,-2.049,8.859
42693,2.672,-2.107,9.098
42758,1.906,-1.82,9.108
42818,2.088,-2.126,9.682
42877,1.695,-1.609,9.787
42933,4.673,-3.639,8.772
42997,2.308,-2.394,10.716
43057,1.81,-2.136,12.852
43117,1.867,-1.532,11.416
43177,1.695,-1.331,10.429
43237,1.858,-2.212,9.797
43298,1.456,-3.323,8.37
43357,0.737,-3.065,8.811
43417,1.264,-2.787,10.534
43478,1.465,-2.643,9.299
43533,1.101,-3.026,10.161
43597,1.12,-2.365,9.539
43657,1.274,-2.969,9.299
43713,1.159,-3.926,9.95
43793,0.891,-2.796,8.753
43843,-0.603,-4.396,11.262
43897,0.843,-3.026,9.462
43953,0.958,-3.496,8.552
44013,1.235,-3.716,9.5
44077,1.015,-2.614,8.753
44142,0.737,-3.275,9.481
44198,0.297,-3.869,9.615
44257,0.824,-3.668,9.711
44319,0.096,-3.342,9.098
44373,0.766,-2.931,9.74
44433,1.044,-3.266,10.362
44498,1.235,-2.998,10.391
44568,0.843,-2.614,10.132
44637,1.293,-3.112,9.539
44697,1.475,-3.218,9.548
44759,1.14,-2.164,9.155
44817,1.714,-2.413,8.897
44873,1.676,-2.701,8.619
44933,1.427,-2.48,9.433
44997,1.513,-3.074,10.994
45053,1.513,-2.94,9.031
45057,1.58,-2.94,9.031
45113,1.159,-2.5,10.161
45173,1.379,-2.433,10.391
45237,1.36,-2.356,9.941
45307,1.772,-2.605,9.146
45375,1.437,-2.203,10.257
45433,1.915,-1.839,9.395
45493,1.101,-2.145,10.171
45557,1.484,-1.992,10.247
45617,1.963,-1.915,9.73
45678,1.379,-1.973,10.333
45733,1.618,-0.986,9.845
45801,0.795,-1.111,10.228
45853,1.724,-1.255,9.989
45917,1.523,-0.785,9.136
45977,1.475,-0.891,9.404
46037,0.661,-0.737,9.768
46097,1.101,-0.546,9.95
46157,1.101,-0.67,9.539
46218,0.699,-0.239,8.657
46277,1.513,-0.211,10.448
46337,1.255,-0.259,10.305
46397,0.958,-0.144,9.826
46457,1.006,-0.096,9.864
46517,1.264,-0.01,9.424
46573,1.006,-0.057,9.989
46638,1.006,-0.373,8.916
46698,1.369,-0.287,9.002
46758,1.149,-0.067,8.801
46817,1.513,-0.575,8.83
46877,1.092,-0.249,9.069
46932,1.092,-0.316,8.696
46937,1.073,-0.316,8.696
46997,1.159,-0.69,8.868
47057,1.14,-0.412,9.29
47117,1.053,-0.565,9.299
47173,1.379,-0.881,8.964
47238,1.226,-0.469,8.772
47293,1.255,-0.46,9.309
47358,0.977,-0.469,10.4
47417,0.929,-0.469,9.462
47483,0.891,0.057,9.912
47553,0.891,-0.134,8.447
47557,1.178,-0.134,8.447
47617,0.871,-0.259,8.523
47677,1.168,-0.354,9.242
47737,0.843,-0.201,9.127
47797,1.12,-0.555,10.305
47853,0.824,-0.814,10.669
47918,0.747,-0.833,10.544
47977,1.197,-0.124,10.41
48037,1.082,-0.498,9.807
48097,1.255,-0.69,9.251
48157,0.967,-0.9,10.889
48220,0.536,-0.517,10.602
48277,0.728,-1.111,10.458
48337,0.124,-0.651,9.318
48398,0.919,-1.398,9.05
48458,0.929,-1.168,9.567
48518,1.235,-1.025,10.477
48578,0.862,-1.513,8.887
48637,0.948,-1.686,9.27
48698,0.871,-1.657,9.644
48753,0.871,-1.235,9.941
48817,0.728,-0.929,9.041
48877,0.776,-1.657,9.146
48937,1.216,-1.954,9.682
48993,0.891,-1.925,8.964
49058,0.555,-1.35,10.41
49117,0.718,-1.705,10.18
49173,1.35,-1.954,8.686
49237,0.986,-2.327,9.27
49293,0.833,-1.733,8.667
49358,1.235,-1.063,10.238
49425,0.833,-1.475,10.123
49498,0.402,-1.427,10.343
49560,1.14,-1.044,10.094
49648,0.421,-1.542,10.19
49677,1.331,-1.484,9.893
49733,1.437,-1.915,9.634
49797,0.728,-2.059,10.075
49857,1.322,-2.03,9.491
49917,0.469,-1.858,10.803
49974,1.226,-1.781,10.046
50038,0.584,-1.207,10.257
50097,1.025,-0.632,8.782
50157,0.488,-1.437,9.893
50218,1.283,-1.207,9.529
50277,0.536,-1.331,9.155
50338,1.369,-1.369,8.571
50398,0.632,-1.494,10.726
50462,0.919,-1.465,9.95
50538,0.699,-1.255,7.939
50597,0.67,-1.733,9.883
50658,0.958,-1.073,8.274
50718,0.441,-0.9,9.51
50777,0.814,-1.159,9.29
50838,0.038,-0.766,10.027
50897,0.852,-0.124,9.826
50957,0.297,-0.594,11.559
51017,0.747,-0.843,9.596
51078,0.517,-0.565,9.912
51137,0.153,-0.651,8.973
51197,0.086,-0.871,9.969
51257,0.297,-0.211,10.391
51317,0.115,-0.986,10.266
51377,0.651,-0.833,10.228
51433,0.929,-0.67,8.543
51497,0.584,-0.67,8.696
51558,-0.019,-0.23,9.682
51618,0.393,-0.354,9.27
51678,-0.622,-0.536,10.151
51738,-0.077,-0.077,9.29
51793,0.153,-0.441,9.759
51857,0.326,-0.326,10.257
51913,0.326,-0.709,10.563
51917,0.22,-0.709,10.563
51978,-0.124,-0.584,10.276
52033,-0.69,-0.01,9.807
52097,0.077,-0.306,10.238
52158,-0.115,0.077,10.199
52217,-0.709,0.421,9.826
52282,-0.919,-0.306,9.203
52337,-0.498,0.115,9.117
52392,-0.354,0.297,9.969
52458,-0.383,0.23,10.218
52518,-0.393,0.421,9.835
52577,-0.038,0.326,9.864
52642,-0.211,-0.096,10.669
52693,-0.479,-0.038,10.257
52758,-0.488,-0.105,9.376
52817,-0.239,0.268,9.041
52873,-0.498,0.0,9.424
52937,-0.536,0.182,9.653
52997,-0.68,-0.01,8.638
53057,-0.287,-0.048,10.017
53117,-0.642,0.182,10.956
53173,-0.642,0.048,11.904
53178,-0.824,0.048,11.904
53238,-0.268,0.22,9.902
53297,-0.354,0.249,10.525
53357,-0.747,0.01,9.481
53412,-0.747,-0.268,9.203
53417,-0.919,-0.268,9.203
53477,-0.747,0.306,10.132
53537,-0.967,-0.46,10.63
53598,-0.795,-0.259,9.673
53663,-0.843,-0.211,9.826
53717,-0.881,-0.057,8.993
53768,-1.312,-0.546,9.031
53838,-0.479,-0.268,9.261
53893,-0.91,-0.048,8.792
53957,-1.034,0.163,8.648
54013,-0.814,-0.019,10.199
54077,-0.69,-0.163,9.826
54138,-1.207,-0.211,10.171
54197,-0.814,0.192,9.539
54253,-1.178,-0.239,9.998
54313,-1.178,-0.393,9.539
54317,-0.881,-0.393,9.539
54373,-0.939,-0.163,9.462
54433,-0.469,-0.278,10.075
54498,-1.369,0.105,9.615
54557,-1.178,-0.594,9.031
54618,-0.996,-0.144,9.902
54673,-0.996,-0.306,9.261
54678,-0.862,-0.306,9.261
54738,-1.36,-0.613,8.571
54808,-1.398,-0.45,9.759
54877,-1.149,-0.153,8.945
54933,-1.006,-0.144,9.222
54997,-1.13,-0.412,9.72
55058,-0.69,-0.057,10.324
55123,-1.015,-0.201,9.596
55197,-0.804,0.067,10.056
55258,-0.814,-0.115,8.973
55317,-0.919,-0.316,9.644
55373,-0.527,-0.019,9.634
55437,-0.862,-0.412,8.629
55498,-0.67,-0.029,11.195
55558,-1.379,0.115,10.63
55617,-1.226,-0.69,8.839
55678,-0.919,-0.498,9.989
55737,-0.871,0.124,8.964
55793,-1.369,-0.584,9.05
55858,-1.006,-0.546,9.692
55918,-1.226,-0.057,8.188
55973,-0.91,0.144,10.305
56037,-0.804,-0.306,8.533
56098,-1.551,0.115,10.161
56158,-1.714,0.22,10.017
56217,-1.781,-1.006,9.232
56278,-1.082,-0.441,11.157
56337,-0.948,-0.431,9.127
56397,-0.737,-0.622,10.716
56453,-0.833,0.0,8.255
56517,-0.891,-0.345,10.008
56573,-0.891,0.0,8.667
56578,-1.609,0.0,8.667
56637,-1.188,-0.182,10.458
56697,-1.006,-0.728,8.657
56757,-1.159,0.211,10.544
56817,-0.91,-0.057,8.399
56878,-1.532,-0.153,11.224
56938,-1.226,-0.479,8.983
56998,-1.216,-0.172,10.285
57057,-1.149,-0.029,9.385
57124,-0.929,-0.46,10.496
57198,-0.977,-0.067,10.41
57253,-1.283,0.287,8.906
57317,-0.977,-0.46,10.142
57377,-1.686,-0.91,8.648
57438,-1.465,-0.986,9.414
57497,-0.651,-0.546,10.381
57558,-1.216,-0.297,9.031
57617,-1.13,-0.536,10.151
57673,-1.513,-0.479,9.041
57743,-1.465,-0.699,9.424
57793,-0.814,-0.019,10.084
57857,-1.379,-0.048,9.088
57913,-1.618,-0.259,9.606
57978,-1.532,-0.785,9.577
58037,-1.542,-0.986,9.357
58098,-1.101,-0.594,10.956
58157,-1.753,-0.019,10.477
58223,-1.714,-0.555,9.232
58293,-1.791,-0.421,9.51
58358,-1.59,-0.498,8.887
58417,-1.235,-0.632,10.266
58477,-2.011,-0.23,9.912
58537,-2.069,-0.249,9.826
58597,-2.078,-0.096,9.069
58657,-2.298,-0.124,10.487
58717,-1.973,-0.335,10.602
58792,-1.542,-0.46,9.749
58837,-1.714,-0.575,9.27
58897,-1.858,-0.852,8.418
58957,-1.982,-0.747,9.27
59017,-2.059,-0.575,9.203
59078,-1.312,-0.881,9.874
59137,-1.561,-0.699,9.5
59197,-1.81,-1.034,9.491
59257,-2.595,-0.345,10.123
59313,-1.992,-0.335,10.218
59377,-1.389,-0.709,9.902
59438,-2.155,-0.699,10.764
59498,-1.657,-0.594,9.452
59557,-2.854,-0.124,10.611
59613,-2.097,-0.393,10.506
59677,-1.82,-0.172,8.926
59737,-1.906,-0.182,9.874
59798,-1.551,-0.086,9.529
59853,-2.04,-0.211,10.956
59917,-1.753,0.057,9.539
59978,-1.705,0.115,9.404
60037,-1.714,-0.124,9.136
60104,-2.318,0.057,10.372
60158,-2.231,0.057,9.883
60218,-1.848,-0.01,8.868
60277,-2.26,0.192,9.596
60338,-2.624,0.067,9.768
60398,-2.059,0.622,9.519
60458,-1.504,0.259,11.032
60517,-2.509,1.494,10.669
60577,-1.896,1.073,11.473
60637,-1.676,0.737,9.95
60698,-1.963,1.034,9.807
60758,-1.867,1.025,9.414
60835,-3.591,1.092,8.983
60893,-1.791,1.379,9.194
60952,-2.107,0.661,9.845
61018,-2.174,1.111,10.132
61077,-1.915,1.188,9.816
61138,-1.733,1.379,9.845
61197,-1.781,0.919,9.366
61257,-2.116,1.207,9.826
61313,-2.327,0.498,9.874
61377,-1.523,0.986,9.443
61438,-1.935,1.791,9.625
61498,-1.973,1.628,10.132
61557,-2.04,1.408,10.63
61617,-2.356,1.437,9.883
61677,-2.069,0.9,9.855
61733,-2.643,0.91,10.046
61798,-2.672,0.038,8.945
61857,-2.289,0.354,9.711
61917,-1.753,0.69,10.716
61977,-2.423,0.565,11.416
62037,-2.088,1.188,10.353
62097,-2.097,1.264,10.554
62157,-2.251,1.226,10.238
62217,-2.126,1.101,9.634
62283,-1.389,0.594,9.012
62337,-1.561,0.239,9.615
62397,-0.824,0.0,10.448
62453,-0.067,0.421,9.519
62517,-0.431,0.69,9.95
62577,-0.345,0.642,9.912
62637,-0.441,0.919,9.471
62697,-0.297,0.824,9.625
62757,-0.757,1.245,9.855
62818,-0.01,0.584,9.347
62877,-0.144,0.737,9.749
62937,0.211,0.651,9.759
62997,-1.12,-1.379,12.287
63057,-1.944,0.067,12.9
63117,-1.551,1.073,12.565
63177,-0.134,1.216,7.776
63237,0.498,1.13,7.623
63297,0.067,1.082,7.116
63359,0.23,0.747,7.977
63417,0.057,0.862,9.012
63473,-0.057,0.929,9.864
63537,1.867,0.402,11.167
63598,0.804,-0.029,10.027
63657,-0.306,-0.211,9.816
63717,-1.36,0.259,10.075
63772,-0.757,0.67,10.879
63838,-0.747,1.025,9.376
63897,0.201,1.389,10.046
63953,1.12,2.231,9.625
64017,1.197,1.523,9.079
64077,1.092,1.044,9.845
64138,0.613,0.211,10.496
64198,0.996,0.192,9.634
64253,1.101,1.245,9.711
64318,1.302,0.929,9.242
64378,0.795,1.082,8.504
64433,0.814,0.661,8.753
64497,0.986,0.575,8.983
64553,0.661,0.785,9.529
64618,0.613,1.073,10.276
64678,1.293,1.245,8.696
64737,0.469,1.551,9.29
64799,0.326,0.718,9.539
64857,0.785,1.36,10.094
64917,-0.01,2.863,9.998
64973,0.431,2.308,10.228
65038,0.948,1.168,10.927
65097,0.986,1.12,9.328
65153,0.603,1.475,7.901
65218,1.101,1.274,10.372
65283,1.618,1.666,9.232
65357,1.101,1.551,9.711
65418,0.326,1.235,12.057
65477,0.862,1.676,9.481
65533,0.833,2.002,9.261
65597,0.565,1.427,9.855
65653,1.513,1.35,9.357
65713,0.728,1.398,10.305
65773,1.168,1.178,9.816
65833,0.728,0.881,9.902
65897,1.302,1.168,8.983
65953,0.852,1.006,9.462
66017,1.705,0.967,9.615
66073,1.015,0.479,8.514
66133,1.178,0.057,9.491
66197,1.14,0.364,8.61
66257,0.335,1.025,10.017
66313,1.398,1.293,8.37
66377,0.9,0.622,9.203
66438,0.824,0.517,10.008
66493,1.389,0.019,8.83
66557,0.709,-0.038,10.285
66617,0.345,-0.201,10.898
66678,1.149,0.575,9.069
66743,1.13,0.115,9.596
66800,0.661,-0.316,10.573
66853,0.661,-0.22,9.06
66857,1.235,-0.22,9.06
66917,1.235,-0.843,9.222
66977,0.843,-0.038,10.295
67038,0.565,-0.086,9.72
67097,0.948,0.172,9.51
67153,0.929,0.182,9.28
67217,0.967,-0.067,9.491
67278,0.939,-0.048,9.002
67338,1.063,-0.259,9.098
67398,0.546,-0.421,9.998
67458,0.536,-0.345,10.467
67517,0.565,-0.431,9.558
67577,1.101,-0.393,9.539
67637,1.207,-0.383,9.567
67697,0.891,-0.709,9.548
67757,0.737,-0.488,10.276
67812,0.737,-0.575,9.069
67818,0.728,-0.575,9.069
67877,0.958,-0.68,8.475
67937,0.086,-0.862,10.333
67998,0.402,-0.967,10.688
68058,0.852,-0.69,8.734
68112,0.249,-0.488,9.471
68178,0.335,-0.01,10.017
68237,0.575,-0.546,10.458
68298,1.034,-0.239,9.05
68353,0.048,-0.316,10.161
68413,0.326,0.163,9.567
68473,0.536,0.038,8.926
68533,-0.096,0.0,10.391
68598,0.642,-0.163,9.567
68653,0.01,-0.115,8.83
68718,-0.192,0.0,11.272
68777,-0.192,0.029,9.701
68783,-0.373,0.029,9.701
68841,0.622,-0.134,9.711
68897,-0.115,-0.259,9.673
68957,0.038,0.057,9.586
69013,0.038,0.278,10.86
69017,0.527,0.278,10.86
69078,-0.182,-0.124,8.705
69137,-0.747,-0.086,10.094
69197,-0.057,-0.115,10.372
69258,-0.402,-0.22,8.772
69313,-0.211,0.354,8.983
69377,-0.192,0.182,10.42
69437,-0.278,0.067,9.491
69493,-0.335,0.239,9.433
69553,-0.01,0.23,10.515
69613,-0.364,0.134,8.964
69678,-0.402,0.67,9.471
69746,-0.096,0.153,9.318
69818,-0.23,-0.412,8.428
69877,-0.22,-0.259,8.159
69938,-0.594,0.105,11.444
69997,-1.034,0.517,8.456
70058,-1.034,0.402,10.64
70113,-0.862,0.402,10.209
70173,-0.335,0.038,9.51
70238,-0.661,0.488,9.366
70297,-0.632,-0.086,8.811
70357,-0.757,0.01,8.236
70413,-0.402,0.584,9.615
70477,-0.766,0.421,8.887
70537,-0.709,0.393,9.653
70597,-0.316,0.594,10.86
70657,-0.096,0.019,9.079
70713,-0.575,1.255,9.433
70795,-0.393,0.919,10.027
70837,-0.69,0.919,8.179
70898,-0.115,0.881,9.29
70953,0.192,0.287,9.012
71013,-0.929,0.814,8.552
71078,-0.441,1.111,10.563
71133,-0.757,0.249,9.72
71198,-0.795,0.603,11.349
71253,-0.019,-0.431,9.673
71318,-0.421,0.287,9.51
71373,0.0,0.201,10.056
71437,-0.316,-0.249,8.351
71497,-0.105,0.029,9.673
71553,0.105,-0.163,8.092
71613,-0.833,0.182,9.203
71678,-0.728,-0.306,9.864
71734,-0.737,0.0,9.261
71797,-0.45,-0.469,10.094
71857,-0.498,-0.105,8.973
71918,-0.498,0.115,10.343
71973,-0.68,-0.01,8.906
72038,-0.22,-0.192,10.046
72093,-0.67,-0.22,8.581
72158,-0.354,-0.508,10.209
72217,-0.479,-0.393,9.74
72273,0.0,-0.795,11.147
72338,-0.757,-0.804,7.824
72408,-0.326,-0.891,10.716
72473,-0.785,-1.025,8.054
72537,-0.632,-0.833,10.075
72593,-0.651,-0.939,9.184
72653,-0.048,-0.919,10.343
72718,-0.402,-0.718,9.481
72778,-0.172,-0.306,11.281
72833,-0.172,-0.603,8.562
72838,-0.68,-0.603,8.562
72898,-0.172,-0.345,9.931
72958,-0.594,-0.287,7.298
73017,-0.412,-0.124,9.787
73077,-0.594,-0.239,9.146
73137,-0.287,-0.134,10.467
73198,-0.776,0.373,10.649
73253,-0.776,-0.22,8.926
73313,-0.776,-0.163,9.979
73317,-0.412,-0.163,9.979
73373,-0.661,-0.326,8.102
73438,-0.144,-0.038,10.362
73498,-0.46,-0.814,8.14
73557,-0.105,-0.249,10.822
73617,-0.105,-0.249,9.51
73627,-0.728,0.278,9.51
73677,-0.316,-0.421,9.203
73737,-0.881,-0.096,9.357
73798,-0.929,-0.259,9.27
73853,-0.929,-0.584,10.017
73857,-0.852,-0.584,10.017
73917,-0.824,-0.613,9.912
73973,-0.737,-0.67,9.979
74033,-0.373,-0.421,10.63
74097,-0.517,-0.584,9.519
74158,-0.881,-0.287,9.165
74212,-0.785,-0.201,9.778
74277,-1.197,-0.575,7.585
74333,-0.536,-0.814,9.692
74398,-0.565,-0.527,8.667
74453,-0.699,-1.025,8.198
74513,-0.642,-0.661,9.644
74573,-0.967,-0.642,8.657
74637,-0.881,-0.718,9.778
74698,-1.341,-0.086,9.414
74757,-1.724,-0.555,10.199
74817,-1.772,-0.613,9.28
74877,-0.642,-0.115,11.195
74937,-2.787,-0.843,8.121
74993,0.412,0.335,11.933
75058,-0.948,0.46,10.592
75117,-1.255,0.441,10.209
75177,-1.676,0.335,9.634
75237,-0.527,0.651,8.083
75297,-1.044,-0.345,8.868
75358,0.23,0.239,10.534
75417,-1.082,-0.182,8.677
75477,-1.599,-0.144,9.883
75537,-0.948,0.0,10.803
75597,-1.025,0.469,8.533
75658,-1.235,0.555,10.209
75713,-1.235,0.575,10.171
75718,-1.178,0.575,10.171
75786,-1.006,0.642,10.171
75837,-0.814,-0.249,8.753
75893,-0.939,0.239,8.37
75957,-1.178,0.029,7.623
76018,-0.479,-0.69,9.242
76073,-1.235,-0.68,7.154
76137,-1.188,-0.287,9.318
76197,-1.188,0.259,9.874
76257,-1.073,-0.498,9.471
76318,-1.877,-0.46,11.425
76378,-0.996,-0.096,9.969
76437,-1.475,-0.613,8.696
76497,-1.341,-0.192,10.716
76558,-1.111,-0.479,9.069
76618,-1.446,-0.891,8.428
76678,-0.268,0.469,9.002
76738,-1.437,0.124,7.345
76805,-0.939,-0.23,10.324
76857,-1.513,-0.153,9.203
76918,-1.839,-0.383,7.987
76978,-1.666,-0.527,9.433
77037,-1.437,-0.536,10.084
77093,-1.609,-0.546,9.117
77158,-1.484,-0.594,9.127
77217,-1.36,-0.278,8.408
77277,-1.81,-0.038,9.912
77337,-1.264,-0.038,9.922
77398,-2.528,0.22,9.06
77453,-2.116,-0.335,8.916
77513,-1.781,-0.364,10.027
77573,-1.791,-0.22,10.027
77633,-1.59,-0.45,10.257
77693,-1.417,-0.804,10.008
77757,-1.743,-0.575,10.381
77817,-1.963,-0.326,9.931
77873,-1.963,-0.718,9.069
77878,-1.81,-0.718,9.069
77933,-1.81,-0.517,8.581
77938,-2.356,-0.517,8.581
77998,-1.465,0.182,8.887
78057,-1.341,-0.124,9.328
78113,-1.331,-0.019,10.669
78177,-1.101,-0.01,11.176
78233,-1.197,0.575,10.86
78298,-1.82,-0.316,10.19
78357,-2.327,0.048,9.567
78420,-2.184,0.115,9.491
78496,-2.021,0.0,8.475
78557,-1.494,-0.249,9.443
78618,-1.053,-0.077,9.529
78678,-1.207,-0.364,10.027
78737,-1.025,0.077,10.851
78802,-1.484,0.0,10.678
78877,-1.695,-0.029,10.611
78938,-1.906,0.182,9.673
78997,-1.666,-0.373,10.285
79053,-2.365,0.019,9.424
79117,-2.126,0.259,9.615
79177,-1.896,0.144,9.328
79233,-1.896,-0.01,9.73
79238,-1.733,-0.01,9.73
79297,-1.714,0.326,10.104
79358,-2.021,0.642,8.772
79413,-1.188,0.038,9.031
79477,-1.743,0.536,9.299
79538,-1.733,0.699,7.805
79593,-1.484,0.881,9.079
79658,-1.609,0.661,10.171
79717,-1.59,0.393,9.596
79775,-2.279,1.159,9.347
79837,-2.174,0.431,9.424
79898,-1.848,0.508,9.711
79958,-1.437,0.364,8.82
80017,-1.628,0.814,8.926
80078,-1.599,1.417,9.845
80137,-1.494,0.871,9.27
80198,-1.523,1.12,9.366
80257,-1.475,1.829,9.74
80313,-1.101,1.465,9.548
80377,-0.488,1.168,9.96
80437,-0.776,1.322,10.324
80497,-1.839,1.034,10.755
80553,-1.906,1.331,10.056
80617,-1.427,1.111,10.046
80677,-1.283,0.948,9.108
80737,-1.618,0.871,9.95
80797,-1.686,0.833,8.705
80853,-1.034,0.709,8.159
80917,-1.532,0.661,8.514
80977,-2.26,0.766,8.878
81037,-1.829,0.776,9.462
81097,-1.245,0.737,9.471
81153,-1.245,0.737,9.95
81157,-0.948,0.469,9.95
81217,-1.733,0.814,9.481
81278,-1.733,0.91,10.467
81338,-1.13,0.871,10.745
81398,-0.967,0.584,10.353
81453,-1.628,0.46,10.803
81522,-1.255,0.441,10.276
81578,-0.919,0.67,11.052
81633,-0.939,0.776,10.458
81697,-2.116,0.412,9.242
81753,-1.724,1.006,10.113
81828,-0.958,0.785,9.73
81897,-1.887,0.795,9.012
81957,-1.513,0.766,10.209
82013,-1.513,0.728,9.404
82017,-0.881,0.728,9.404
82078,-1.791,0.469,7.93
82138,-2.155,0.632,9.155
82197,-2.021,0.862,8.648
82258,-2.078,0.211,9.088
82313,-2.078,0.201,9.653
82318,-1.858,0.201,9.653
82373,-1.858,0.019,9.175
82377,-1.274,0.019,9.175
82437,-1.283,0.019,10.305
82498,-1.599,-0.287,10.343
82557,-1.935,-0.603,9.816
82618,-1.753,-0.115,10.276
82682,-0.891,-0.019,10.41
82738,-0.45,-0.096,10.458
82801,-1.571,-0.115,9.357
82853,-1.762,0.048,9.51
82918,-1.743,0.134,9.787
82978,-1.408,-0.239,9.692
83038,-1.341,-0.421,9.826
83097,-2.107,-0.316,9.203
83158,-1.618,-0.124,10.534
83212,-1.283,-0.182,10.429
83278,-1.484,-0.412,9.96
83333,-1.523,-0.402,9.874
83398,-1.686,0.393,10.218
83458,-1.188,-0.115,10.123
83517,-1.686,-0.268,9.644
83578,-1.915,-0.383,9.73
83638,-1.446,-0.306,9.931
83693,-0.575,-0.144,10.056
83753,-0.709,-0.048,9.653
83817,-1.437,-0.23,9.845
83877,-1.092,-0.306,9.414
83933,-1.197,-0.048,9.357
83993,-1.542,-0.211,9.136
84053,-0.814,-0.46,9.404
84117,-2.078,-0.536,9.491
84177,-1.178,-0.45,9.931
84238,-1.159,-0.163,11.339
84293,-0.948,-0.431,9.701
84357,-1.523,-0.527,10.19
84417,-0.747,-0.287,10.688
84478,0.115,-0.077,11.052
84538,-1.235,-0.402,9.29
84598,-1.647,-0.086,8.475
84657,-1.302,-0.086,9.567
84717,-1.35,-0.124,9.452
84773,-1.389,-0.45,9.299
84837,-1.762,-0.45,8.255
84893,-1.216,-0.297,9.749
84957,-1.504,-0.192,9.701
85013,-1.446,-0.326,9.778
85077,-1.551,0.029,9.807
85138,-0.795,-0.038,10.439
85197,-0.709,0.029,9.749
85258,-1.331,-0.22,9.673
85323,-1.101,0.019,9.203
85378,-1.025,-0.019,10.104
85443,-1.312,-0.594,9.73
85517,-1.877,-0.115,10.927
85577,-1.111,-0.565,10.841
85637,-1.197,-0.728,10.697
85697,-0.546,-0.019,10.027
85758,-0.508,-0.105,10.42
85817,-1.082,-0.412,11.1
85877,-1.235,-0.785,9.874
85937,-1.025,-0.603,9.539
85993,-0.986,-0.038,9.835
86058,-0.862,-0.211,10.4
86118,-1.226,-0.843,9.519
86177,-1.12,-0.038,9.606
86233,-1.111,-0.077,9.692
86297,-0.891,-0.718,9.797
86357,-1.542,0.01,10.937
86417,-1.082,-0.019,10.736
86477,-1.369,0.077,9.567
86538,-1.437,-0.536,9.242
86593,-1.216,0.057,8.993
86657,-1.322,0.249,8.897
86717,-1.044,-0.508,8.983
86773,-1.523,-0.268,9.318
86833,-1.542,-0.306,9.088
86898,-1.073,0.182,9.136
86957,-1.35,0.105,9.424
87013,-1.35,0.105,9.012
87017,-2.318,0.105,9.012
87077,-1.398,0.0,9.136
87138,-1.207,0.115,10.353
87193,-1.101,-0.326,9.529
87258,-1.58,-0.067,9.462
87313,-1.896,0.01,9.883
87377,-1.532,0.096,9.749
87437,-1.044,0.632,9.031
87498,-1.417,-0.45,9.433
87557,-0.986,-0.469,8.466
87617,-1.073,-0.862,10.554
87678,-1.695,-0.977,10.353
87738,-1.216,-0.929,10.669
87799,-0.469,0.402,9.491
87857,-0.326,0.45,10.036
87918,-0.144,-0.354,10.975
87977,-1.379,-0.029,10.017
88038,-1.13,0.546,10.487
88104,-1.302,0.345,11.463
88168,-1.389,-0.335,10.831
88238,-0.115,-0.134,10.487
88297,-0.766,-0.077,10.41
88357,-0.67,-0.287,9.941
88413,-0.393,0.077,10.918
88477,-1.245,0.048,10.4
88538,-1.628,-0.201,9.634
88597,-1.733,-0.019,10.017
88658,-1.973,-0.306,10.544
88717,-1.446,-0.373,9.404
88773,-1.015,-0.249,8.274
88833,-0.613,-0.057,8.839
88893,-0.747,-0.239,8.667
88953,-1.532,-0.373,8.715
89017,-0.249,-0.067,10.391
89073,-0.948,0.278,11.004
89133,-0.948,-0.565,10.841
89137,-1.149,-0.565,10.841
89198,-1.302,-0.239,10.544
89257,-0.728,-0.479,10.19
89318,-1.58,-0.469,10.669
89373,-0.431,-0.373,8.859
89433,-0.661,-0.22,8.629
89502,-1.015,-0.268,8.859
89577,-0.421,-0.412,10.19
89637,-1.408,-0.584,9.874
89693,-1.446,0.105,9.261
89758,-0.699,-0.163,9.644
89823,-0.546,-0.077,9.05
89897,-0.469,0.306,10.611
89957,-1.36,0.029,10.305
90017,-1.772,0.22,8.878
90077,-0.632,-0.163,8.437
90137,-1.197,0.278,9.701
90197,-0.68,-0.077,12.019
90262,-0.881,-0.278,10.046
90318,-1.446,0.029,8.734
90378,-0.431,0.278,9.644
90433,-0.536,0.192,10.534
90497,-1.59,0.172,9.519
90557,-0.795,0.335,7.796
90613,-0.68,0.306,9.912
90682,-1.14,0.057,10.19
90737,-1.283,-0.086,8.772
90797,-0.412,0.249,9.232
90857,-1.207,-0.029,10.429
90913,-1.207,-0.316,10.218
90917,-1.226,-0.316,10.218
90977,-0.958,0.115,8.351
91033,-1.264,0.105,10.649
91097,-0.881,0.373,9.606
91158,-0.785,0.45,8.83
91213,-0.632,0.144,10.199
91278,-1.101,0.23,9.404
91338,-0.804,0.163,10.362
91397,-1.13,0.105,9.491
91453,-1.197,0.661,8.657
91517,-1.006,0.565,12.594
91577,-1.427,-1.925,8.456
91633,-0.326,0.958,7.441
91697,-1.12,0.105,10.046
91759,-1.791,-1.437,9.816
91823,-2.222,0.287,9.72
91873,-1.772,0.546,9.855
91938,-1.341,-0.335,8.772
91997,-1.542,0.182,8.389
92061,-0.881,-0.038,10.544
92118,-1.695,-0.086,10.104
92177,-0.785,0.096,8.495
92233,-1.772,-0.163,9.72
92296,-0.919,-0.211,8.59
92357,-1.015,-0.622,11.205
92417,-1.992,-0.01,9.998
92477,-0.565,0.153,10.276
92537,-1.35,-0.124,11.569
92593,-0.316,0.565,10.247
92657,-1.417,-0.211,10.64
92718,-0.594,0.536,8.188
92784,-1.302,0.967,11.942
92858,-0.488,0.412,8.859
92913,-2.509,0.699,9.864
92977,-1.111,1.188,8.945
93033,-1.111,0.153,11.234
93037,-2.107,0.153,11.234
93093,-1.178,0.268,10.276
93158,-1.542,0.038,10.132
93217,-0.986,0.22,8.102
93278,-1.992,0.22,10.161
93337,-0.364,-0.488,8.954
93393,-2.251,-0.651,9.5
93457,-1.015,0.144,8.495
93517,-2.365,-0.642,10.247
93577,-0.594,-0.153,9.922
93637,-1.839,-0.239,9.471
93697,-0.862,0.441,8.782
93757,-1.178,-0.038,11.042
93817,-1.006,-0.038,10.285
93877,-1.044,0.335,10.745
93937,-1.14,-0.01,9.539
93997,-1.216,0.278,9.05
94057,-0.862,0.785,9.606
94117,-1.417,0.335,9.05
94173,-1.255,0.46,10.075
94237,-0.862,0.469,9.069
94298,-1.523,0.431,9.682
94357,-1.197,0.441,10.554
94418,-1.293,0.757,11.09
94478,-0.986,0.105,8.332
94537,-1.092,0.555,10.534
94597,-1.293,-0.23,9.491
94657,-1.13,0.182,9.155
94713,-1.111,0.536,9.079
94777,-1.58,0.249,9.261
94837,-2.088,1.408,7.805
94897,-0.881,0.527,11.588
94957,-0.814,0.9,10.017
95013,-0.776,-0.603,11.837
95077,-0.335,-0.46,8.686
95137,-0.661,0.01,9.222
95197,-1.666,-0.565,11.157
95258,-0.661,-0.077,9.95
95317,-1.523,0.048,9.5
95373,-1.427,0.546,10.573
95438,-0.699,0.115,9.855
95492,-0.699,0.316,9.845
95497,-0.9,0.316,9.845
95557,-1.293,0.067,11.808
95617,-1.073,0.469,9.615
95677,-0.881,0.306,10.573
95738,-1.638,0.383,10.678
95794,-1.274,0.555,11.511
95853,-0.479,0.172,9.701
95917,-0.9,0.335,9.855
95977,-1.015,1.101,11.176
96033,-1.341,0.335,10.104
96093,-0.297,0.594,10.314
96168,-1.293,0.057,9.634
96234,-1.207,-0.22,8.217
96293,-1.58,-0.01,8.619
96353,-1.369,-0.22,9.519
96417,-1.255,-0.613,8.064
96472,-1.255,-0.46,9.06
96478,-0.843,-0.46,9.06
96533,-1.561,-0.412,7.834
96597,-1.973,-1.006,9.299
96657,-1.638,-0.622,9.634
96718,-1.887,-0.642,10.333
96787,-0.622,-0.527,9.797
96843,-1.59,-0.23,8.724
96918,-0.843,-0.115,9.548
96973,-2.049,-0.153,10.065
97063,-1.618,-0.661,9.203
97137,-1.638,-0.488,9.136
97198,-2.107,-1.561,8.897
97258,-2.337,-1.044,8.112
97318,-1.609,-0.785,8.868
97385,-1.331,-0.431,8.207
97458,-1.484,-0.613,8.581
97515,-2.078,-0.603,8.255
97577,-2.5,-0.469,9.96
97642,-1.906,-0.67,8.849
97697,-2.289,-0.661,9.443
97762,-1.954,-1.149,9.548
97813,-2.461,-0.824,9.73
97878,-1.484,-1.034,9.586
97934,-1.992,-1.35,9.481
97993,-2.528,-1.063,10.008
98057,-1.542,-1.235,10.736
98117,-1.618,-1.14,8.782
98173,-2.5,-1.12,9.883
98237,-2.097,-1.36,8.993
98297,-2.375,-1.36,8.303
98357,-2.375,-0.737,9.194
98418,-1.341,-0.871,8.389
98478,-1.705,-0.287,10.209
98537,-1.81,-0.086,11.55
98597,-1.8,-0.23,9.72
98658,-1.369,-1.015,10.525
98718,-1.906,0.929,8.657
98785,-2.184,0.239,8.954
98838,-2.672,-0.192,10.18
98897,-2.231,0.239,11.1
98957,-2.806,0.613,12.143
99017,-2.241,-0.163,9.874
99078,-2.308,-0.46,10.63
99137,-2.356,-0.412,8.705
99198,-2.691,-0.498,11.08
99257,-2.71,-1.197,9.079
99313,-2.624,-0.785,10.094
99377,-2.5,-0.393,9.299
99438,-2.097,-0.833,9.06
99493,-2.097,-0.833,10.793
99497,-2.097,-1.13,10.793
99553,-2.097,-0.565,8.207
99558,-2.394,-0.565,8.207
99617,-2.5,-0.546,9.309
99677,-2.279,-0.824,11.214
99733,-3.112,-0.172,7.92
99815,-2.624,-0.661,9.117
99873,-2.911,-0.46,10.285
99937,-3.247,-0.948,9.826
99993,-3.247,-0.9,8.657
99998,-3.218,-0.9,8.657
100058,-2.614,-0.45,9.711
100117,-2.27,-1.389,9.615
100177,-1.551,-1.101,10.803
100233,-2.701,-0.91,10.343
100292,-3.132,-0.728,9.27
100353,-3.476,-1.36,9.95
100413,-3.132,-1.369,9.05
100477,-3.084,-0.622,10.075
100533,-2.413,-1.389,8.006
100597,-3.381,-1.925,11.071
100658,-3.247,-1.456,11.674
100712,-3.438,-1.293,10.084
100789,-2.337,0.546,12.421
100837,-3.591,-1.082,8.035
100893,-3.563,-1.417,7.843
100957,-2.844,-1.312,10.305
101017,-3.026,-2.174,7.623
101077,-2.806,-1.015,8.552
101137,-2.471,-1.781,5.44
101193,-2.471,-1.36,9.807
101197,-2.825,-1.36,9.807
101257,-3.764,-2.222,11.454
101317,-2.873,-1.504,11.636
101378,-2.682,-0.728,11.08
101438,-2.739,-1.331,9.491
101498,-3.074,-1.753,12.028
101553,-2.586,-1.015,11.55
101618,-2.729,-1.398,9.567
101677,-2.816,-1.992,11.799
101738,-1.925,-1.302,7.824
101802,-2.825,-1.293,8.916
101853,-2.94,-1.753,9.175
101917,-2.653,-2.164,8.811
101973,-0.958,-2.136,12.871
102037,-3.247,-1.791,8.552
102097,-3.017,-2.251,10.42
102157,-1.695,-1.992,10.161
102217,-2.547,-1.628,8.045
102278,-2.988,-2.27,9.155
102337,-2.049,-1.954,9.979
102397,-3.304,-2.212,9.989
102457,-2.605,-1.915,10.448
102517,-2.816,-1.523,8.638
102578,-2.729,-2.184,8.772
102637,-2.356,-2.049,10.084
102697,-1.475,-2.116,8.868
102758,-2.595,-1.935,9.414
102817,-3.036,-1.695,9.519
102877,-1.245,-1.302,10.985
102937,-2.634,-1.494,9.452
102997,-2.365,-1.14,9.615
103053,-2.365,-1.82,11.76
103058,-1.561,-1.82,11.76
103117,-2.806,-1.58,9.232
103177,-1.753,-1.772,10.305
103237,-2.241,-1.58,9.452
103298,-3.361,-1.13,8.859
103352,-2.394,-1.331,11.732
103417,-2.298,-1.475,9.232
103477,-2.088,-1.628,9.969
103538,-2.72,-1.302,8.102
103598,-2.002,-1.188,10.132
103657,-2.72,0.019,10.094
103718,-3.179,-0.891,9.625
103778,-2.279,-0.891,8.696
103833,-2.931,-1.398,9.395
103893,-2.72,-1.216,9.577
103957,-3.218,-1.226,9.385
104017,-2.116,-0.555,8.504
104078,-2.126,0.153,8.983
104133,-2.71,-0.297,7.479
104193,-2.433,-0.661,9.328
104257,-2.231,0.105,8.437
104322,-3.084,-0.9,9.663
104378,-2.059,-0.067,11.339
104438,-2.279,-1.781,8.073
104498,-2.959,-0.948,9.347
104557,-3.199,0.077,10.918
104617,-3.065,0.306,9.079
104677,-4.137,-0.575,7.575
104738,-2.911,-1.053,9.309
104798,-2.375,-0.795,10.649
104857,-2.5,-0.316,10.602
104918,-2.806,0.211,8.226
104977,-2.844,-0.479,9.596
105037,-3.438,-0.412,8.638
105098,-3.725,-0.757,8.82
105157,-2.461,-0.201,10.707
105217,-3.208,0.249,10.065
105277,-2.969,-0.096,9.261
105333,-1.417,0.498,10.879
105398,-2.576,0.709,8.341
105457,-2.298,-0.393,10.285
105517,-2.193,-0.306,10.18
105578,-0.862,0.278,9.395
105647,-3.563,0.335,9.96
105718,-2.394,1.14,11.281
105789,-2.145,0.105,8.782
105838,-1.915,0.45,9.759
105897,-1.743,0.479,10.515
105958,-0.747,-0.335,11.444
106017,-1.034,1.379,9.625
106077,-0.479,0.68,10.898
106137,-1.331,1.216,9.098
106197,-0.22,1.618,11.071
106253,-1.35,1.666,9.184
106313,-1.35,2.03,11.042
106318,-0.431,2.03,11.042
106377,-0.613,1.992,11.004
106438,-1.925,0.91,10.458
106497,0.278,1.925,11.339
106553,-1.168,1.312,7.661
106613,-1.168,1.312,9.567
106618,0.651,1.714,9.567
106677,-0.852,1.925,10.803
106737,-1.053,1.906,10.008
106806,-0.259,2.088,9.404
106878,-1.245,1.743,9.979
106937,-1.293,1.484,8.389
106993,-1.772,3.141,10.18
107057,-0.048,1.312,12.957
107117,-2.04,-0.144,14.528
107177,-1.494,-0.536,14.04
107238,-1.082,-0.172,12.574
107297,-0.354,0.986,9.701
107358,-1.168,0.373,9.931
107418,0.077,-1.207,12.479
107477,-1.733,-1.006,10.879
107538,-0.843,-1.982,11.914
107598,-0.603,-3.294,11.578
107658,-1.13,-3.39,10.563
107717,-0.881,-3.563,11.856
107777,-1.551,-3.668,7.02
107838,0.0,-3.476,9.586
107897,-0.239,-1.973,10.276
107953,-0.124,-1.647,12.574
108017,-0.364,-3.208,10.774
108077,-0.737,-2.978,9.931
108137,-0.718,-3.994,10.64
108198,-0.929,-3.994,10.017
108253,-0.929,-2.26,10.477
108257,-0.278,-2.26,10.477
108318,-0.249,-3.285,8.504
108377,-0.383,-3.907,9.96
108437,-0.699,-4.348,10.985
108498,-0.565,-3.802,9.902
108553,-0.642,-3.323,11.396
108613,-0.642,-3.352,9.462
108618,-0.603,-3.352,9.462
108677,-0.527,-3.256,9.74
108737,-0.019,-3.553,10.716
108798,0.105,-3.036,9.711
108857,-0.192,-3.199,9.539
108918,-0.192,-3.764,9.558
108983,0.029,-3.687,9.385
109038,-0.067,-4.061,8.878
109098,0.201,-3.524,9.165
109158,0.517,-3.17,9.941
109213,0.192,-3.553,10.937
109273,0.45,-3.352,9.625
109338,0.565,-4.367,10.228
109398,0.632,-4.52,11.052
109457,1.235,-3.984,9.768
109518,1.063,-4.549,9.213
109572,1.063,-3.974,9.931
109577,0.737,-3.974,9.931
109633,0.469,-4.683,10.381
109698,0.373,-3.448,9.692
109758,0.287,-3.572,10.084
109817,0.46,-3.381,11.847
109873,0.0,-3.524,10.803
109937,0.709,-3.61,10.592
109997,1.111,-3.496,9.902
110053,1.053,-3.304,8.782
110113,1.417,-3.093,8.514
110177,1.475,-3.314,8.629
110237,1.542,-2.586,8.303
110298,1.446,-2.643,8.418
110358,1.207,-2.26,8.408
110418,1.101,-2.164,8.332
110478,1.034,-1.705,8.418
110542,1.14,-1.369,8.811
110598,0.891,-0.709,9.529
110657,0.613,-0.594,10.391
110724,0.613,-0.536,10.515
110781,0.747,0.086,10.295
110838,0.575,0.23,9.835
110893,0.651,0.622,9.136
110958,0.948,0.469,9.989
111013,1.36,0.144,8.581
111077,1.235,0.546,8.916
111138,1.034,0.613,9.835
111193,0.91,-0.383,11.243
111253,0.91,0.23,11.416
111257,0.441,0.23,11.416
111318,0.613,-0.077,10.707
111377,0.881,-0.172,10.918
111437,1.255,-0.029,10.161
111497,1.398,-0.077,9.567
111558,0.948,0.22,10.544
111618,0.555,0.0,10.889
111677,0.804,-0.153,10.898
111738,1.14,0.134,10.592
111797,1.465,0.211,9.184
111857,1.369,0.182,8.6
111913,0.278,0.048,9.615
111978,0.259,-0.172,11.109
112033,1.025,0.316,9.749
112093,0.699,0.172,9.309
112158,0.163,0.441,9.663
112223,0.354,0.038,11.329
112297,1.427,-0.354,9.088
112358,0.354,-0.211,9.634
112418,1.149,0.096,9.615
112477,0.824,0.441,10.036
112537,1.274,0.115,9.213
112597,0.852,-0.632,10.381
112657,1.14,0.077,10.295
112718,1.034,0.124,9.491
112777,0.086,0.508,10.707
112837,0.115,0.163,10.736
112897,0.498,-0.01,10.343
112953,0.086,0.038,10.161
113017,-0.105,0.115,11.119
113077,0.316,0.019,10.18
113138,0.776,-0.517,9.912
113197,0.68,-0.105,9.079
113257,0.651,-0.038,9.424
113317,0.469,-0.124,9.414
113377,0.795,-0.249,9.682
113438,-0.086,0.383,10.937
113504,0.469,-0.01,10.343
113553,0.852,-0.134,9.711
113617,0.211,0.297,9.673
113677,0.45,-0.642,9.452
113740,0.421,-0.029,9.969
113802,0.172,0.421,10.458
113853,1.264,-0.622,8.255
113913,0.613,-0.057,9.203
113977,-0.144,0.412,10.956
114037,1.178,-0.737,9.309
114097,1.149,-0.124,8.705
114153,0.603,0.134,10.343
114217,0.508,-0.105,9.807
114273,0.0,-0.096,9.309
114333,0.0,-0.172,10.803
114337,-0.603,-0.172,10.803
114397,0.632,-0.077,9.194
114457,0.393,-0.019,9.922
114518,0.192,-0.115,10.621
114573,0.622,-0.086,9.27
114637,0.077,0.249,9.596
114697,1.063,-0.067,8.14
114753,0.383,0.124,10.324
114818,0.278,0.22,9.251
114878,-0.01,0.306,10.592
114937,0.182,0.0,9.06
114997,-0.776,-0.096,11.061
115057,0.077,0.306,9.05
115112,-0.067,-0.115,10.554
115183,0.642,-0.431,10.113
115238,0.364,-0.345,8.878
115297,0.393,-0.441,9.251
115357,-0.441,-0.105,9.088
115418,0.077,-0.172,9.778
115478,-0.115,-0.23,8.83
115537,0.766,0.393,10.362
115593,0.766,-0.239,9.989
115597,0.0,-0.239,9.989
115658,0.239,0.067,9.596
115717,0.182,0.144,9.989
115773,0.182,0.383,10.41
115777,0.431,0.383,10.41
115837,-0.153,0.306,10.621
115893,0.019,0.029,10.372
115957,-0.096,0.038,10.764
116013,0.23,0.115,9.96
116077,0.488,0.555,10.994
116138,0.555,-0.163,8.945
116197,-0.144,-0.067,11.837
116258,0.239,0.239,9.797
116317,-0.326,0.345,11.655
116378,0.412,0.546,8.495
116437,0.479,0.613,9.079
116498,0.316,0.077,9.251
116558,0.259,0.019,9.309
116613,-0.268,0.201,10.534
116677,0.651,0.057,9.385
116738,-0.45,0.287,10.841
116804,0.613,-0.067,8.092
116873,-0.057,-0.067,10.257
116937,0.067,0.115,9.251
116997,0.22,0.048,10.458
117058,-0.939,0.268,9.682
117118,0.086,0.038,9.768
117178,0.469,-0.163,10.439
117237,-0.421,-0.421,10.975
117298,-0.144,-0.785,10.448
117363,-0.68,-0.431,8.859
117418,-0.153,-0.335,9.922
117477,0.0,-0.536,9.673
117537,-0.268,-0.737,9.51
117598,-0.373,-0.575,9.203
117657,-0.565,-0.709,8.954
117724,-0.67,-0.45,10.19
117777,-0.919,-0.249,9.443
117837,-0.469,-0.508,10.506
117897,-0.105,-0.776,9.912
117957,-0.479,-0.91,8.859
118018,-0.613,-0.335,9.969
118077,-0.546,-0.555,8.849
118133,-0.402,-0.718,8.581
118197,-0.144,-0.373,9.644
118258,-0.316,-1.053,9.261
118313,-0.249,-0.201,9.96
118378,-1.025,-0.383,9.088
118433,-0.565,-0.239,9.673
118498,-0.728,-0.632,9.146
118557,-0.603,-0.278,10.554
118618,-0.268,-1.006,10.64
118678,0.096,-0.172,9.452
118738,-0.048,-0.517,9.615
118808,-0.804,-0.642,9.701
118873,-0.45,-0.804,9.491
118937,-0.517,-0.192,9.95
118993,-0.192,-0.306,9.644
119057,-0.46,-0.096,10.659
119117,-0.077,-0.22,9.682
119178,-0.565,-0.46,9.606
119237,-0.843,-0.306,9.864
119297,-0.67,-0.211,10.199
119357,-0.278,-0.211,10.965
119413,-0.393,-0.613,9.29
119473,0.172,-0.881,8.61
119544,-0.278,-0.488,9.146
119617,-0.757,-0.69,11.406
119678,-0.737,0.0,11.31
119738,-1.312,-0.077,9.73
119811,-0.192,-0.919,12.201
119873,-0.182,-0.594,10.764
119938,-0.163,0.134,9.567
119993,-0.259,-0.536,11.645
120053,-0.259,-0.412,9.146
120058,-0.967,-0.412,9.146
120117,-1.628,-0.565,9.184
120177,-1.178,-0.546,9.912
120238,-0.105,-0.412,8.131
120293,-0.421,-0.019,11.636
120358,0.46,-0.833,8.581
120418,-1.101,-0.096,9.606
120477,-1.073,1.12,9.079
120537,1.322,-0.546,10.439
120598,-0.259,-0.479,12.651
120658,-0.661,-0.785,12.622
120717,0.565,-0.124,14.011
120778,-0.843,0.46,8.954
120837,-0.575,-0.364,6.761
120893,0.335,-0.594,7.537
120953,0.249,-0.584,10.477
121018,0.316,-0.393,9.079
121082,-1.896,-0.326,8.447
121137,-0.536,-0.048,11.741
121197,0.077,-0.096,11.186
121257,-1.35,-0.67,9.194
121318,-0.795,-0.661,12.182
121377,-1.006,-0.23,10.104
121433,-0.45,-0.852,6.809
121497,-0.737,-0.594,11.09
121557,-0.211,-1.312,7.412
121613,-1.743,-0.01,7.815
121677,-0.871,-0.508,10.017
121737,-0.431,-0.948,11.54
121797,0.287,0.153,11.09
121853,-0.594,-0.939,7.345
121913,-0.594,-0.019,8.274
121917,-1.542,-0.019,8.274
121977,0.22,-0.584,8.064
122037,1.063,-0.862,9.73
122098,-1.293,-0.469,9.567
122158,-0.306,-0.249,11.377
122217,1.417,-0.747,9.376
122278,1.686,-0.192,6.627
122333,-1.437,-0.163,8.533
122397,0.144,-0.843,7.374
122457,-0.201,-0.441,9.404
122517,0.211,-0.795,6.177
122573,-2.193,0.326,9.998
122637,1.341,-1.034,8.571
122693,-0.479,0.163,13.944
122758,-1.762,-0.067,6.847
122817,-1.082,-0.096,9.088
122873,-0.479,-0.46,7.7
122933,-0.833,-0.431,10.602
122993,-0.833,-0.469,11.272
122998,0.287,-0.469,11.272
123053,-0.967,-0.019,12.249
123117,1.015,0.326,10.257
123180,-0.862,-0.029,12.526
123238,-0.115,-0.431,12.804
123303,-0.939,-0.019,11.176
123357,-0.584,0.153,9.041
123413,-0.268,0.067,9.749
123477,0.077,0.163,10.218
123533,-0.067,0.0,9.232
123598,-0.441,-0.134,8.744
123658,-0.565,-0.067,9.05
123717,-0.239,-0.383,10.142
123790,-0.881,-0.057,9.692
123848,-0.239,-0.048,9.941
123908,-0.211,-0.124,9.28
123968,-0.23,-0.105,10.918
124027,0.057,-0.153,9.922
124087,-0.354,0.201,10.257
124147,-0.9,0.259,9.989
124207,-0.776,0.239,9.855
124267,0.077,-0.086,10.458
124328,-0.019,-0.326,10.333
124387,-0.316,-0.029,11.617
124447,-0.249,0.029,10.889
124508,-0.086,0.354,10.918
124568,0.019,0.029,11.042
124627,0.326,0.163,10.228
124688,-0.115,0.603,8.973
124749,-0.201,0.383,9.328
124808,-0.182,0.412,9.357
124867,0.134,0.622,10.295
124928,0.249,1.331,9.835
124987,-0.527,0.306,9.29
125047,-0.364,1.082,10.611
125108,-0.421,0.622,10.965
125167,0.0,0.594,9.443
125227,-0.048,0.69,10.247
125287,-0.182,0.967,8.744
125347,-0.029,0.488,9.615
125408,-0.067,1.12,10.036
125467,0.172,1.207,9.232
125528,-0.622,1.034,10.285
125587,-0.728,1.226,10.161
125648,-0.077,0.804,10.017
125708,-0.441,1.063,9.357
125767,0.124,0.833,8.839
125827,0.019,1.12,10.582
125887,-0.192,0.891,9.462
125947,-0.383,0.948,10.218
126008,0.057,1.12,9.74
126068,0.096,1.025,8.734
126127,-0.306,1.322,10.036
126188,-0.469,1.025,9.816
126247,-0.441,1.829,10.19
126307,-0.23,1.264,9.529
126367,-0.536,1.283,10.42
126427,-0.335,1.302,9.548
126487,-0.393,1.197,10.496
126548,-0.048,1.36,11.339
126608,0.038,1.829,11.08
126668,0.038,1.743,9.558
126729,0.077,1.82,9.27
126801,-0.804,2.04,10.716
126868,-0.833,2.059,10.151
126928,-0.421,2.212,10.803
126987,0.22,1.647,10.027
127047,-0.067,1.963,10.008
127107,-0.306,1.896,9.222
127167,-1.092,1.906,9.404
127227,-0.124,2.164,9.96
127288,-0.546,2.385,9.615
127347,-0.929,2.174,10.621
127407,-0.153,2.136,10.898
127468,-0.239,1.925,10.956
127527,-0.575,2.078,9.749
127588,-0.508,1.686,9.27
127647,-0.163,1.992,9.864
127707,-0.364,1.772,8.926
127767,-0.316,1.504,9.749
127827,-0.22,1.504,11.109
127888,-0.795,1.398,10.602
127948,0.508,1.034,11.08
128007,-0.201,1.12,9.021
128068,0.268,1.446,9.673
128127,-0.182,1.542,9.395
128187,-0.287,1.58,8.207
128248,-0.278,1.513,9.749
128308,-0.441,1.504,9.682
128368,-0.45,1.638,8.629
128428,-0.249,1.571,9.041
128487,-0.268,1.571,9.27
128547,-0.278,1.379,9.548
128607,-0.498,1.695,9.376
128667,-0.785,1.8,9.519
128727,-0.134,1.494,9.203
128787,-0.249,1.848,9.73
128847,-0.508,2.011,10.247
128907,-0.153,1.379,10.257
128968,-0.163,1.992,10.065
129028,0.019,1.437,9.749
129088,-0.393,1.494,10.036
129148,-0.316,1.561,9.606
129208,-0.115,1.571,9.759
129267,-0.297,1.925,10.592
129327,0.086,1.762,12.871
129388,-0.057,1.848,11.827
129447,-0.163,1.686,10.554
129507,0.01,2.078,11.435
129567,0.086,1.772,10.448
129627,0.019,1.906,10.927
129688,-0.23,1.762,10.142
129748,-0.651,1.973,9.615
129817,-0.345,1.791,9.424
129887,0.019,1.781,10.18
129948,-0.144,1.647,9.711
130008,0.172,1.915,9.404
130067,0.077,1.666,10.898
130127,-0.335,1.618,9.855
130188,-0.105,1.082,10.151
130247,-0.038,0.728,10.697
130307,-0.555,1.025,10.276
130367,-0.373,0.661,10.142
130427,-0.335,0.9,10.036
130487,-0.115,0.919,9.931
130547,0.268,0.546,10.266
130607,0.517,0.594,9.357
130667,-0.201,0.622,9.021
130727,0.163,0.45,8.897
130788,0.469,0.124,9.596
130848,0.555,0.747,9.682
130907,-0.211,0.584,10.851
130967,0.259,0.498,10.238
131028,0.383,0.278,11.052
131087,-0.297,0.575,10.218
131149,-0.239,0.373,9.816
131207,-0.393,0.259,10.946
131267,0.019,0.249,9.682
131327,-0.144,0.134,9.941
131388,-0.364,0.326,10.104
131448,0.067,0.057,9.041
131508,-0.077,0.441,10.602
131567,-0.268,0.364,10.209
131628,0.364,0.67,10.678
131687,-0.115,-0.211,11.205
131747,-0.402,-0.249,8.657
131808,0.029,0.029,10.563
131867,-0.029,-0.278,9.424
131927,-0.192,-0.086,9.462
131987,0.249,-0.144,9.366
132047,-0.029,-0.144,9.615
132108,0.172,-0.488,11.674
132168,-0.22,-0.306,8.523
132228,0.163,0.211,8.811
132288,0.038,-0.067,10.065
132347,-0.488,-0.46,11.09
132407,0.153,0.077,9.481
132468,-0.029,-0.105,11.885
132527,-0.268,-0.086,11.751
132587,-1.006,-0.68,10.027
132647,-0.555,-0.46,8.792
132707,0.527,-0.278,9.251
132767,0.45,-0.029,9.328
132827,0.268,-0.862,8.859
132887,0.144,-0.661,10.621
132947,0.01,-0.613,8.906
133007,0.249,-0.527,9.041
133068,-0.144,-0.268,9.653
133128,-0.259,-0.268,11.042
133188,-0.153,-0.441,10.716
133247,-0.019,-0.814,9.711
133307,-0.747,-0.785,10.42
133367,-0.211,-0.575,9.615
133427,-0.565,-1.188,9.165
133487,-0.259,-0.737,8.437
133548,-0.201,-1.389,9.443
133608,-0.153,-0.699,10.889
133668,-0.22,-0.642,9.443
133728,-0.632,-1.829,9.979
133787,-0.795,-1.188,10.151
133847,-0.958,-1.437,10.046
133907,-0.536,-0.622,10.065
133967,-0.249,-1.695,10.41
134027,-0.939,-1.906,10.803
134087,-0.115,-1.58,9.567
134148,0.249,-1.666,8.159
134208,0.517,-0.9,9.931
134268,-0.105,-1.81,8.945
134328,-0.115,-1.896,9.653
134388,-0.316,-2.231,10.439
134447,-0.316,-2.04,10.496
134507,-0.747,-1.733,10.956
134568,-0.584,-1.81,11.128
134628,0.019,-1.935,10.238
134688,0.048,-2.174,10.391
134748,0.048,-2.298,10.937
134813,0.086,-2.002,8.811
134867,0.144,-2.145,10.056
134927,0.019,-1.532,9.759
134987,0.105,-2.03,10.324
135048,-0.124,-2.308,9.414
135113,-0.038,-2.854,9.491
135167,0.182,-1.8,10.228
135227,-0.096,-2.682,8.38
135288,0.584,-2.442,10.314
135348,-0.412,-1.532,10.851
135407,0.747,-2.567,8.964
135467,-0.038,-1.963,9.931
135527,0.057,-2.433,9.213
135588,-0.134,-2.902,10.611
135653,-0.354,-2.643,9.998
135708,0.527,-2.155,9.213
135767,0.402,-2.94,10.104
135827,0.0,-3.026,10.726
135888,0.431,-2.758,9.596
135947,-0.268,-2.998,10.956
136007,0.603,-2.863,8.466
136068,-0.172,-2.739,10.659
136128,0.508,-3.112,8.294
136192,-0.029,-2.528,9.883
136248,0.326,-2.701,8.629
136308,0.057,-2.193,11.186
136367,0.01,-2.586,9.768
136427,0.517,-2.538,8.59
136487,-0.172,-2.768,9.826
136547,0.335,-2.078,8.543
136608,0.124,-2.701,10.458
136668,-0.201,-2.069,8.495
136728,0.383,-2.337,11.013
136787,-0.067,-1.8,9.414
136847,0.335,-2.174,10.362
136907,-0.201,-2.241,10.305
136968,-0.306,-1.848,9.443
137028,0.268,-1.398,10.755
137087,-0.326,-2.04,10.228
137147,0.354,-2.049,9.414
137207,0.469,-1.302,10.506
137267,-0.086,-0.967,10.755
137328,-0.565,-1.695,9.299
137387,0.153,-0.996,12.287
137448,-0.441,-0.718,9.232
137508,0.536,-0.498,9.759
137568,0.402,-1.13,8.954
137627,-0.297,-1.178,11.205
137687,0.163,-0.737,8.495
137747,0.048,-0.68,11.109
137808,-0.163,-1.044,9.749
137867,0.115,-0.843,8.983
137928,0.144,-1.312,9.127
137987,-0.508,-0.287,10.199
138048,0.479,-1.188,8.466
138109,0.488,-0.757,10.247
138168,-0.469,-0.91,10.075
138227,-0.192,-0.68,8.705
138287,0.115,-0.747,9.146
138348,-0.354,-0.555,10.41
138407,0.441,-0.508,9.337
138467,0.115,-0.766,11.416
138528,-0.067,-0.814,9.251
138587,0.441,-0.412,9.816
138647,-0.297,-0.642,10.266
138707,-0.249,-0.364,9.864
138767,0.019,-1.044,8.351
138827,0.211,-0.565,8.724
138887,-0.508,-0.565,10.429
138948,0.354,-0.479,8.083
139008,0.23,-0.402,9.29
139068,-0.153,-0.939,10.285
139128,0.144,-0.929,7.843
139187,-0.239,-0.565,10.994
139247,0.354,-0.488,10.151
139308,0.134,-0.479,10.525
139368,0.68,-0.929,8.514
139427,-0.354,-0.326,8.906
139487,-0.239,-0.335,10.391
139548,-0.048,-0.335,9.117
139608,-0.527,-0.584,11.224
139668,-0.057,0.019,10.266
139728,-0.019,-0.201,10.171
139794,-0.105,-0.565,11.224
139847,0.163,-0.785,10.994
139907,-0.172,0.096,9.826
139967,0.22,-0.45,10.027
140028,-0.45,-0.766,10.515
140088,0.019,-0.757,9.625
140147,0.077,-0.23,9.414
140207,-0.23,-0.613,12.21
140267,-0.402,-0.948,9.194
140328,0.268,-0.316,8.734
140388,-0.192,-0.306,8.667
140447,0.0,-0.393,8.667
140508,-0.421,-0.077,9.548
140567,-0.795,-0.536,9.232
140628,-0.192,-0.699,9.385
140687,-0.67,-0.431,10.104
140747,-0.249,-0.46,9.165
140810,0.603,-0.393,8.361
140868,0.163,-0.316,9.232
140928,-0.124,-0.048,9.404
140988,-0.68,-0.182,10.324
141047,-0.441,-0.316,8.792
141107,0.335,-0.354,9.041
141168,-0.67,0.029,10.467
141228,-0.22,-0.153,9.96
141287,0.096,-0.68,9.491
141348,-0.316,-0.546,12.009
141407,-0.402,-0.833,10.104
141468,0.594,-0.364,8.897
141527,0.086,-0.124,9.902
141587,0.335,-0.622,9.969
141647,-0.124,-0.517,11.789
141707,0.029,-0.297,9.606
141767,0.096,-0.316,8.724
141828,0.019,-0.239,9.021
141888,-0.555,-0.259,8.705
141948,-0.134,-0.642,8.408
142008,-0.373,-0.373,9.96
142067,-0.46,-0.603,8.686
142128,-0.259,-0.575,9.749
142188,-0.287,-0.469,9.433
142247,-0.508,-0.795,10.209
142307,-0.67,0.22,10.879
142368,0.508,-0.182,9.529
142427,-0.287,-0.862,11.09
142488,0.584,-0.096,10.755
142548,0.134,-0.383,9.28
142608,-0.316,-0.297,9.826
142668,-0.278,-0.278,10.4
142727,-0.603,-0.335,10.362
142787,0.22,-0.23,9.816
142847,0.105,-0.814,10.783
142907,0.249,-0.766,9.644
142967,0.335,-0.45,9.653
143028,-0.23,0.144,10.314
143088,0.412,-1.053,10.803
143148,-0.067,-0.871,10.803
143207,-0.699,-0.345,9.443
143268,-0.536,-0.431,8.169
143327,-0.163,-0.144,8.897
143387,-0.249,-0.508,10.324
143447,-0.077,-0.192,10.036
143507,0.316,-0.412,8.437
143567,-0.086,0.249,9.443
143627,-0.278,-0.287,8.849
143687,-0.096,-0.412,8.734
143747,-0.182,-0.211,10.161
143807,-0.057,-0.364,10.822
143868,-0.498,0.029,10.305
143928,-0.249,-0.144,9.462
143987,-0.22,-0.086,11.061
144047,0.153,-0.402,9.433
144108,0.239,-0.728,10.506
144168,-0.68,-0.239,9.902
144227,0.163,-0.402,10.333
144293,-0.421,-0.603,10.774
144348,-0.124,-0.9,9.117
144408,-0.412,-0.431,9.73
144467,0.555,-0.354,8.466
144532,-0.249,-0.546,10.046
144588,0.115,-0.249,9.088
144647,0.517,-0.498,9.06
144707,-0.46,-0.077,10.63
144767,-0.077,-0.278,9.73
144828,-0.824,0.124,9.902
144888,-0.057,-0.172,9.673
144947,-0.498,-0.575,11.444
145008,0.335,-0.575,9.567
145067,-0.364,-0.211,10.534
145127,-0.718,-0.412,10.487
145187,0.393,-0.67,10.4
145248,-0.153,-0.996,11.205
145308,0.373,-0.115,8.226
145367,-0.402,-0.613,11.291
145427,-0.153,-0.508,9.989
145488,0.153,-0.105,8.859
145548,0.393,0.22,7.93
145608,-0.268,-0.316,10.851
145667,-0.067,-0.278,9.606
145727,-0.086,-0.326,11.042
145788,-0.287,-0.268,10.946
145848,-0.345,-0.565,8.839
145907,-0.105,-0.335,9.816
145967,-0.709,-0.699,11.349
146028,-0.23,-0.651,8.38
146087,-0.335,-0.105,9.261
146148,-0.057,-0.613,9.471
146207,-0.383,-0.345,10.985
146268,-0.029,-0.354,9.625
146327,-0.019,-0.22,9.586
146387,-0.105,-0.402,11.167
146448,-0.268,-0.134,10.372
146507,-0.766,-0.182,10.257
146568,-0.776,-0.134,9.979
146628,-0.364,-0.45,11.339
146687,0.316,0.814,7.671
146749,-0.067,-0.776,11.119
146807,-0.651,-0.555,12.498
146868,-0.747,0.096,10.113
146927,-1.13,-1.14,10.104
146987,-0.871,-0.086,10.046
147048,-0.373,-0.306,9.443
147108,-0.268,-0.201,7.939
147168,-0.795,-0.766,7.767
147228,-0.661,0.029,7.987
147287,-0.259,-0.029,8.906
147347,-0.68,-0.144,8.792
147407,-0.929,0.182,9.787
147467,-0.785,-0.134,8.054
147527,-0.661,-0.259,12.028
147588,-1.063,-0.498,9.519
147647,-0.172,-0.038,11.693
147708,-0.364,-0.709,10.736
147768,-0.412,-0.172,9.29
147828,-0.335,-0.067,8.112
147887,-0.939,-0.163,8.61
147948,-0.354,-0.124,10.305
148007,-0.469,-0.421,7.681
148067,-0.68,-0.105,9.835
148127,-0.565,-0.326,9.912
148187,-0.709,-0.508,9.816
148247,-0.594,-0.661,8.973
148308,-0.335,0.0,9.893
148368,-0.747,-0.67,10.247
148428,-0.421,-0.105,9.328
148488,-0.575,-0.249,10.295
148547,-0.431,0.038,10.123
148608,-0.804,-0.153,9.845
148667,-0.345,-0.737,10.362
148726,-0.067,-0.68,9.5
148827,-0.45,-0.105,9.577
148888,-0.843,0.038,9.366
148948,-0.268,-0.709,10.4
149008,-0.517,-0.383,10.18
149067,-0.019,-0.555,10.64
149128,-0.268,-0.144,9.922
149187,-0.278,-0.536,8.973
149248,-0.249,-0.651,9.069
149308,-0.584,-0.124,7.997
149368,-0.555,-0.038,8.82
149428,-1.12,-0.239,9.318
149488,-0.69,0.22,10.161
149547,-0.891,0.096,9.969
149608,-0.67,-0.565,9.385
149667,-0.488,-0.469,9.309
149728,-0.402,-0.345,10.391
149803,-0.383,-0.364,9.979
149867,0.057,-0.508,10.19
149928,-0.316,0.297,9.481
149988,-0.747,-0.249,9.787
150047,-0.891,-0.326,9.222
150108,-0.373,-0.536,9.807
150168,-0.421,-0.124,9.74
150227,-0.441,-0.172,9.155
150288,-0.9,-0.45,9.414
150347,-0.201,-0.259,9.404
150407,-0.594,-0.163,9.749
150468,-0.057,-0.211,10.027
150527,-0.393,0.067,9.797
150587,-0.69,-0.479,10.008
150648,-0.737,0.01,10.372
150708,-0.642,-0.249,10.659
150767,-0.297,-0.105,9.06
150803,-0.048,-0.134,8.15
150888,-0.498,-1.053,10.104
150948,-0.766,-0.086,10.218
151008,-0.172,-0.709,10.793
151068,-0.699,-0.316,9.701
151128,-0.814,-0.421,8.811
151187,-0.306,0.163,9.874
151248,-0.259,0.029,10.458
151308,-0.383,-0.45,9.414
151367,-0.651,-0.268,9.845
151428,-0.115,0.431,10.937
151488,-0.412,0.077,9.433
151548,-0.278,0.278,9.06
151607,-0.651,0.373,10.046
151668,-0.383,0.555,9.357
151729,-0.057,0.747,10.257
151798,-0.306,0.747,10.132
151868,-0.316,0.441,9.902
151927,-0.469,1.331,9.462
151987,-0.603,0.594,9.395
152048,-0.172,1.465,10.075
152107,-0.364,1.293,10.132
152167,0.096,1.12,9.376
152227,-0.096,1.331,9.366
152287,-0.01,1.369,8.887
152348,-0.029,1.58,8.715
152408,0.412,1.638,8.887
152467,-0.259,1.513,9.855
152527,0.029,1.494,9.682
152588,0.0,1.705,10.123
152648,0.057,2.145,8.811
152708,-0.057,1.618,10.094
152768,0.306,1.963,9.165
152827,0.843,2.385,9.682
152888,0.278,1.963,9.184
152947,-0.431,1.915,11.712
153008,-0.029,1.561,10.63
153068,0.546,1.638,10.736
153127,0.546,2.03,9.136
153188,0.766,2.557,9.558
153248,0.785,2.097,9.711
153307,0.326,1.82,9.673
153368,0.373,2.059,10.487
153427,-0.115,1.944,10.841
153487,0.0,2.021,10.314
153547,0.421,2.126,9.261
153608,0.852,2.375,8.887
153666,0.852,2.145,9.175
153669,0.651,2.145,9.175
153727,0.134,2.155,9.357
153787,0.297,2.231,9.529
153848,0.421,1.647,9.596
153907,0.153,1.618,10.276
153967,0.709,1.877,10.266
154027,0.297,1.963,9.567
154087,0.651,2.27,8.6
154148,0.431,2.164,9.711
154207,0.259,2.231,8.839
154268,0.153,1.8,8.964
154328,0.441,1.322,9.558
154387,0.45,1.408,9.912
154447,0.584,1.293,8.887
154507,0.871,0.833,9.203
154567,0.804,1.255,8.274
154628,1.025,1.082,8.562
154688,0.201,0.412,9.663
154748,0.527,0.239,9.481
154809,0.144,0.498,10.161
154867,0.23,-0.019,10.285
154927,-0.038,0.345,11.08
154987,-0.211,-0.306,11.291
155047,-0.096,-0.335,10.822
155108,0.45,-0.45,10.726
155167,0.642,0.527,10.4
155227,0.383,0.048,9.05
155287,0.345,0.029,9.337
155347,0.316,0.584,9.136
155407,0.038,0.134,9.519
155467,0.192,0.373,9.931
155528,0.278,0.412,10.171
155588,0.211,0.278,10.563
155647,-0.077,-0.144,11.109
155707,0.536,0.594,9.376
155767,0.546,-0.01,9.424
155827,0.038,0.508,10.171
155887,0.326,0.153,9.031
155948,0.345,0.335,9.251
156008,0.613,0.192,10.056
156068,0.852,0.249,9.567
156128,0.632,0.278,8.839
156193,0.421,0.297,9.481
156247,0.057,0.0,10.324
156309,-0.22,0.134,9.539
156367,0.527,0.134,9.491
156428,0.278,-0.01,10.276
156488,-0.795,-0.259,9.922
156548,0.182,-0.278,9.606
156608,-0.211,0.096,9.395
156667,0.757,0.086,9.922
156728,0.919,-0.268,9.079
156787,0.259,-0.699,9.088
156847,-0.268,-0.517,8.983
156907,-0.23,0.163,10.065
156968,0.383,-0.163,10.362
157027,0.105,-0.192,8.61
157087,0.153,-0.163,9.606
157148,0.201,-0.201,9.586
157207,-0.182,-0.326,10.257
157267,0.01,-0.153,9.395
157327,0.134,-0.029,10.295
157388,0.268,-0.335,9.634
157448,0.441,0.086,9.395
157507,-0.086,-0.239,10.707
157567,0.364,-0.565,10.084
157628,0.297,-0.182,9.232
157687,0.153,-0.364,9.29
157748,-0.364,0.048,9.969
157807,-0.373,-0.134,9.979
157867,0.421,0.259,9.673
157927,0.029,0.45,9.644
157987,-0.709,-0.115,10.113
158047,0.134,0.086,9.864
158108,-0.029,-0.393,8.849
158168,0.22,0.163,9.539
158228,0.163,-0.967,9.28
158293,-0.613,0.105,8.897
158347,0.412,-0.287,10.755
158408,0.373,0.067,8.571
158468,-0.048,0.029,9.539
158527,0.134,0.019,9.663
158588,0.163,0.067,8.772
158647,-0.01,0.01,10.429
158707,-0.517,-0.306,10.544
158768,-0.929,-0.144,10.582
158827,0.373,0.057,10.142
158888,0.077,-0.134,9.012
158947,0.364,-0.546,10.008
159008,0.182,-0.067,11.167
159068,-0.029,-0.718,9.586
159127,0.201,0.086,9.06
159187,0.441,0.086,10.353
159247,-0.421,-0.402,11.329
159308,-0.977,0.182,11.712
159367,-0.249,-0.785,12.076
159428,0.259,-0.22,9.625
159488,0.891,-0.622,9.452
159550,0.383,-0.354,8.226
159608,0.134,-0.69,9.069
159667,-0.326,-0.469,9.749
159727,0.0,0.201,11.023
159787,0.441,-0.536,8.6
159848,-0.086,-0.488,10.017
159907,-0.067,-0.182,10.027
159967,-0.412,-0.613,9.797
160027,0.124,-0.153,12.057
160087,-0.469,-0.642,11.77
160147,0.345,-0.192,10.745
160208,0.613,-0.057,9.577
160267,0.373,-0.421,7.882
160327,-0.259,-0.498,10.065
160388,0.603,-0.201,10.697
160448,0.613,-0.249,9.031
160507,0.546,-0.086,9.05
160568,-0.134,-0.642,8.83
160627,-0.766,-0.431,10.343
160687,-0.01,-0.967,10.113
160749,-0.124,-0.345,10.075
160809,0.441,-0.527,9.136
160868,0.575,-0.527,9.912
160927,-0.306,-0.699,11.684
160987,0.201,-0.709,10.104
161048,-0.517,-0.967,9.96
161108,0.335,-0.824,9.979
161167,0.527,-1.006,10.927
161227,0.393,-0.23,9.874
161287,0.268,-0.67,10.333
161348,0.843,-0.163,9.471
161407,-0.048,-0.182,9.673
161467,0.211,-0.402,9.778
161528,-0.69,-0.575,11.09
161588,0.134,-0.699,10.209
161648,-0.335,-0.441,10.42
161708,-0.182,-0.287,11.454
161768,-0.393,-0.364,11.914
161827,0.048,-0.785,11.272
161887,0.172,-1.063,11.53
161948,-0.22,-0.939,10.582
162007,-0.067,-0.747,12.028
162068,1.053,-0.421,8.207
162127,0.661,-0.46,10.659
162187,0.508,-0.632,8.887
162248,-0.402,-0.948,8.37
162308,0.699,-0.69,8.724
162367,0.029,-1.12,11.741
162428,0.479,-0.814,10.171
162488,-0.546,-1.274,10.755
162548,0.747,-0.804,8.437
162607,0.134,-1.111,10.295
162667,0.067,-1.14,9.5
162728,0.383,-1.302,11.205
162788,-0.124,-1.772,11.502
162848,0.527,-1.628,11.32
162907,0.555,-1.867,9.883
162968,1.245,-1.59,8.657
163027,0.134,-1.331,9.51
163088,0.067,-1.379,9.74
163148,0.077,-1.963,8.715
163208,0.019,-1.599,9.136
163268,-0.019,-1.743,12.364
163328,1.331,-1.551,9.768
163387,0.057,-1.427,10.63
163447,0.718,-1.762,8.475
163508,0.134,-1.982,10.515
163568,1.551,-1.178,8.514
163627,-0.019,-1.954,12.555
163688,0.958,-1.082,7.958
163747,-0.412,-1.111,10.851
163807,-0.46,-1.657,9.864
163868,0.603,-1.666,9.337
163927,-0.192,-1.465,10.343
163988,0.651,-1.705,9.433
164047,-1.188,-2.509,12.028
164108,0.9,-1.628,11.176
164167,-0.01,-1.925,12.345
164228,1.149,-1.839,9.73
164288,0.086,-1.14,10.716
164347,-0.086,-1.561,10.946
164408,0.412,-1.647,10.975
164467,-0.306,-1.676,11.904
164527,1.197,-1.034,10.218
164588,0.22,-2.069,11.023
164647,1.149,-0.881,7.02
164707,0.517,-0.804,8.945
164767,0.105,-1.034,8.648
164828,-0.67,-2.116,10.391
164887,0.048,-2.768,8.294
164948,0.651,-2.653,10.783
165007,0.881,-1.369,12.316
165067,1.168,-1.963,9.414
165128,-0.211,-3.266,10.199
165187,0.192,-2.193,9.864
165248,-0.441,-1.561,9.586
165308,1.341,-1.331,11.636
165367,0.364,-1.532,9.309
165427,0.201,-1.887,11.253
165487,-0.048,-1.848,11.492
165547,1.36,-1.523,9.864
165608,0.278,-1.839,11.243
165667,0.488,-1.58,8.638
165727,1.369,-2.107,9.184
165801,-0.115,-1.963,10.257
165848,1.092,-1.609,9.021
165907,-0.086,-1.676,12.096
165968,0.441,-1.408,8.59
166027,1.159,-1.149,8.217
166087,0.785,-1.82,10.439
166148,-0.115,-2.337,12.68
166207,0.067,-1.389,8.284
166267,0.977,-1.504,9.395
166328,1.283,-1.082,9.787
166387,1.59,-0.91,5.65
166447,0.776,-0.642,6.311
166508,-0.172,-1.781,9.471
166567,0.871,-0.421,8.993
166628,1.12,-0.335,7.604
166687,1.063,-0.402,9.299
166749,0.134,-1.551,9.414
166807,1.686,-0.383,11.167
166868,1.322,-0.795,12.775
166927,0.795,-0.862,9.088
166988,-0.958,-0.718,11.904
167048,0.297,-0.919,9.577
167108,0.239,-1.207,11.272
167167,0.048,-0.048,10.898
167228,-0.201,-0.105,11.751
167288,1.504,-0.536,7.46
167348,0.804,-1.015,10.132
167407,2.519,-1.025,8.274
167468,-0.105,0.144,13.877
167528,-0.402,-0.575,8.523
167588,0.239,1.226,8.15
167652,1.293,-1.034,5.727
167708,2.749,-2.873,8.236
167768,10.4,-5.152,18.541
167828,-5.124,0.996,6.407
167887,-0.718,1.609,7.776
167947,-0.881,0.22,6.886
168008,1.379,-0.192,7.728
168067,0.718,-0.871,8.447
168127,0.0,-1.437,9.5
168188,0.354,0.345,9.318
168248,0.488,0.421,9.979
168308,0.881,-0.517,10.353
168368,1.092,-0.757,10.745
168427,0.67,-0.584,10.822
168488,1.082,-0.45,9.539
168548,0.69,-0.163,9.376
168608,1.025,-0.335,9.596
168667,0.172,-0.192,11.195
168727,0.814,-0.45,10.305
168788,1.647,-0.91,10.669
168848,0.46,-0.134,10.985
168907,0.096,-0.814,11.349
168968,0.948,-0.565,10.898
169027,0.881,-0.201,9.701
169088,1.369,-0.019,9.242
169147,1.322,-0.594,8.993
169207,0.498,-0.508,7.901
169267,0.862,-0.163,9.357
169327,0.546,0.038,10.247
169388,1.283,-1.312,10.056
169448,1.063,-1.053,10.391
169507,1.015,0.316,9.73
169568,0.613,-0.747,9.768
169628,1.111,-0.259,8.198
169688,0.45,-0.412,9.5
169748,0.153,-1.025,9.347
169808,0.469,-0.488,8.715
169867,1.369,-0.373,12.163
169932,0.124,-0.373,11.147
169987,1.168,-0.699,10.573
170048,0.977,-0.498,8.715
170107,0.622,-0.776,12.057
170168,-1.13,-0.172,12.536
170228,-0.249,-0.373,10.879
170288,1.341,-1.504,8.102
170348,1.504,-1.207,11.195
170407,1.456,-1.896,12.479
170468,-0.278,-0.22,9.883
170528,1.753,0.67,9.366
170588,1.312,-0.048,7.853
170648,0.393,0.747,11.157
170707,0.498,0.259,9.606
170767,1.044,0.517,8.351
170827,0.46,-0.057,8.6
170889,0.546,-0.278,8.849
170947,0.383,0.124,8.495
171007,1.178,-0.192,9.989
171068,0.402,-0.22,10.257
171127,0.862,-0.029,8.61
171187,0.488,-1.13,11.061
171247,0.124,-1.025,10.659
171307,0.029,-0.239,10.228
171368,0.201,-1.369,12.718
171428,-0.038,-1.216,12.402
171488,0.852,-0.536,11.693
171548,0.881,-1.159,10.688
171607,1.264,-1.609,11.665
171668,0.345,-0.297,10.467
171728,0.728,-0.278,10.63
171788,1.551,-0.929,7.403
171847,0.584,-0.843,9.385
171907,0.584,-0.412,9.673
171967,0.948,-0.546,9.625
172027,0.757,-0.527,9.357
172088,1.36,-0.622,8.983
172147,0.68,-0.546,9.136
172207,0.891,-0.709,10.171
172268,1.053,-0.622,9.51
172327,0.517,-0.077,9.72
172388,0.718,-0.699,10.161
172447,0.757,-1.034,10.822
172508,0.306,-0.46,10.544
172567,0.029,-1.025,11.866
172627,0.718,-0.508,9.644
172687,0.211,-0.871,10.697
172747,0.096,-0.986,11.205
172813,0.23,-0.986,9.74
172868,0.316,-0.393,9.749
172928,0.479,-0.881,9.845
172987,0.728,-0.508,10.046
173047,1.12,-0.345,9.481
173107,0.929,-1.14,7.393
173167,1.35,-0.881,7.757
173227,0.144,-0.622,9.51
173287,0.709,-1.073,9.845
173347,1.13,-0.986,9.088
173407,0.795,-0.757,9.108
173467,0.326,-0.948,11.799
173528,0.613,-0.958,9.577
173588,0.297,-0.852,9.787
173647,0.728,-0.651,10.18
173707,0.584,-1.609,9.155
173768,0.948,-1.609,10.151
173827,1.13,-1.666,9.031
173887,1.053,-1.302,9.031
173947,0.594,-1.925,9.692
174007,0.622,-1.954,8.772
174067,0.383,-2.097,9.452
174127,0.565,-1.896,10.506
174187,0.431,-2.222,10.056
174247,1.025,-1.753,8.801
174307,0.795,-1.149,8.916
174367,0.967,-1.666,8.562
174428,1.159,-1.322,9.376
174487,0.488,-1.475,8.954
174548,0.498,-1.676,9.5
174608,0.019,-2.289,12.852
174668,0.326,-2.385,10.592
174728,0.431,-2.059,10.056
174794,0.948,-2.471,10.228
174848,1.168,-2.337,8.083
174907,-0.278,-1.063,9.979
174967,0.517,-2.375,7.997
175027,0.881,-2.519,9.069
175087,0.45,-0.747,9.72
175148,0.479,-2.442,10.017
175208,2.27,-3.323,4.3
175267,1.063,-2.806,2.002
175328,-0.555,-2.327,8.581
175387,-0.69,-2.729,10.19
175447,0.737,-2.5,14.576
175507,-0.144,-1.992,10.056
175568,1.168,-1.197,9.414
175628,0.306,-2.155,10.736
175687,0.613,-0.259,8.887
175748,0.919,-2.049,6.876
175815,0.68,-1.906,8.447
175868,0.517,-1.331,8.82
175928,-0.077,-1.513,7.508
175988,0.134,-1.044,9.031
176047,0.201,-1.302,8.61
176107,0.373,-1.839,9.644
176167,0.651,-1.274,10.764
176227,0.345,-1.092,10.132
176288,0.508,-1.456,10.793
176347,0.699,-1.264,9.136
176408,0.086,-1.389,10.362
176467,0.632,-1.216,10.285
176528,0.594,-1.887,9.634
176588,1.12,-1.676,9.5
176647,1.025,-1.063,9.481
176707,0.661,-1.551,9.337
176767,0.804,-1.35,9.05
176827,0.364,-0.91,9.28
176888,0.833,-1.369,9.519
176948,0.46,-1.178,8.753
177007,0.383,-1.264,9.749
177067,0.239,-1.657,10.238
177128,0.488,-1.446,9.931
177187,0.891,-1.906,10.266
177248,0.737,-1.331,10.448
177308,0.737,-1.398,10.094
177368,0.555,-1.446,9.002
177427,0.584,-1.168,10.104
177488,0.393,-1.446,9.337
177547,1.274,-1.523,10.391
177608,0.9,-1.551,9.596
177668,0.709,-0.958,8.504
177727,0.45,-1.954,9.29
177801,1.082,-0.852,9.625
177867,0.306,-0.632,8.667
177927,0.967,-1.226,9.28
177988,0.718,-0.814,7.815
178047,0.804,-0.364,8.59
178108,0.737,-0.958,7.259
178168,0.709,-0.239,8.064
178228,0.709,-0.354,7.815
178288,-0.153,-0.421,8.504
178348,-0.603,-1.465,10.448
178408,-0.757,-1.302,11.511
178467,0.661,-0.852,10.697
178527,0.488,-2.375,10.726
178587,0.68,-1.992,10.343
178647,0.565,-0.393,9.194
178707,0.843,-0.651,9.194
178767,0.402,-0.833,9.72
178827,0.182,-0.326,10.305
178887,0.096,-0.182,8.475
178947,0.239,-0.441,9.893
179007,-0.048,-0.642,10.008
179068,-0.201,-0.795,9.041
179128,-0.249,-0.891,10.056
179188,-0.249,-0.891,8.389
179247,-0.239,-0.517,8.715
179307,-0.077,-0.555,9.998
179367,0.0,-0.67,8.945
179428,-0.326,-0.268,8.495
179488,-1.063,-0.105,10.506
179547,-0.469,-0.057,9.711
179608,-0.546,-0.163,9.318
179667,-0.804,-0.105,9.663
179730,-0.517,-0.316,10.017
179807,-0.163,-0.259,10.161
179867,-0.776,-0.067,9.491
179927,-0.469,-0.412,9.586
179988,0.029,-0.488,9.318
180047,-0.536,-0.182,8.332
180107,-0.134,-0.929,8.878
180167,-0.067,-0.575,9.567
180228,-0.488,-0.814,9.27
180288,0.105,-0.833,9.309
180347,-2.346,0.718,12.871
180408,-0.594,0.01,11.588
180467,-1.092,-0.115,9.969
180527,0.728,-1.695,7.163
180588,-0.086,-0.881,6.618
180647,-0.45,-0.508,9.06
180708,-0.536,-1.475,9.692
180768,-0.776,0.192,8.868
180827,-0.373,-0.067,11.349
180887,-0.029,-0.057,9.826
180947,-0.699,-0.45,9.012
181007,-0.661,-0.249,9.452
181067,-0.259,-0.326,9.443
181128,-0.469,-0.441,9.72
181187,-0.536,-0.594,9.663
181249,-0.498,-0.373,9.06
181307,-0.23,-0.278,9.95
181367,-0.326,-0.565,8.351
181428,0.038,-0.383,9.95
181488,0.038,-0.354,10.285
181547,-0.335,-0.565,8.629
181607,-0.306,-0.622,9.634
181667,-0.565,-0.259,9.787
181728,-0.565,-0.546,10.563
181787,-0.699,-0.536,9.586
181847,-0.441,-0.584,10.065
181908,-0.182,-0.603,10.467
181968,-0.632,-0.852,9.519
182028,-0.393,-0.661,9.653
182087,-0.335,-0.192,9.797
182147,-0.354,-0.201,10.448
182207,-0.268,-0.134,9.194
182267,-0.259,-0.441,8.543
182327,-0.297,-0.488,10.123
182387,-0.555,-0.46,9.749
182447,-0.584,-0.469,10.094
182507,-0.393,-0.833,9.443
182568,-0.278,-0.661,10.151
182627,-0.45,-0.622,10.381
182688,-0.517,-0.441,10.266
182747,-0.412,-0.335,9.634
182808,-0.326,-0.22,10.228
182867,-0.766,-0.153,9.931
182927,-1.101,-0.287,10.544
182988,-0.498,-0.259,9.328
183047,-0.46,-0.632,9.711
183108,-0.622,-0.335,9.376
183168,-1.867,-0.555,8.763
183228,-1.255,-0.488,10.86
183287,-1.599,-0.718,9.395
183348,-0.747,-0.718,12.306
183407,-0.536,-0.488,9.491
183467,-0.757,-0.68,9.692
183533,-0.948,-0.699,8.753
183587,-1.235,-0.804,8.926
183653,-0.306,-0.67,10.506
183707,-1.063,-0.958,8.217
183767,-0.996,-0.67,9.51
183827,-1.168,-0.709,8.792
183888,-0.891,-0.919,10.467
183947,-0.843,-1.293,9.184
184008,-1.149,-0.603,10.448
184068,-1.398,-0.115,9.778
184127,-1.8,-0.69,9.941
184188,-1.877,-0.335,10.228
184248,-1.264,-0.584,10.621
184308,-0.709,0.057,10.649
184367,-1.484,0.01,10.017
184428,-1.743,-0.383,8.562
184487,-1.915,-0.527,10.238
184547,-1.657,-0.527,10.199
184607,-1.791,-0.67,9.184
184668,-2.03,-0.843,8.849
184727,-1.226,-0.642,9.72
184803,-1.006,-0.441,10.353
184867,-1.772,-0.354,9.203
184927,-1.839,-1.188,8.265
184988,-1.791,-0.498,8.772
185048,-1.274,-0.833,9.787
185108,-1.331,-0.268,10.046
185168,-1.609,-0.814,9.845
185227,-2.174,-1.006,9.577
185288,-1.532,-0.642,10.86
185347,-1.935,-1.494,8.246
185407,-1.676,-1.073,8.619
185468,-1.101,-0.757,8.926
185528,-1.484,-0.393,10.247
185588,-1.724,-0.766,9.242
185648,-2.193,-0.709,9.95
185708,-2.164,-0.833,9.912
185768,-2.327,-0.69,9.883
185832,-1.887,-1.255,9.826
185887,-2.231,-1.302,9.261
185948,-2.365,-1.034,9.855
186007,-1.781,-0.967,9.376
186067,-1.743,-1.255,10.42
186127,-1.915,-0.431,9.376
186187,-1.58,-0.919,9.242
186247,-1.341,-0.69,9.586
186307,-2.184,-0.326,9.088
186367,-2.193,-0.527,9.979
186427,-2.471,-0.46,10.132
186487,-1.839,-0.421,9.692
186547,-2.251,-0.316,9.251
186607,-1.724,-0.345,9.347
186667,-1.714,-0.67,10.295
186727,-2.021,-0.575,9.816
186788,-2.231,-0.651,10.017
186848,-1.437,-0.441,9.711
186908,-0.862,-0.249,9.778
186967,-0.613,0.029,10.113
187028,-0.172,0.096,9.807
187087,-0.469,-0.144,9.912
187148,-0.287,0.019,10.19
187207,-0.077,0.172,10.247
187268,-0.393,0.153,9.567
187328,-0.661,-0.077,9.567
187387,-0.23,-0.077,10.285
187447,-0.335,-0.038,9.768
187507,-0.517,0.096,9.979
187567,-0.46,0.431,10.381
187627,-0.192,-0.067,10.391
187687,-0.728,0.757,9.835
187750,-0.048,0.124,10.132
187819,-0.259,0.297,9.586
187888,0.249,0.603,10.362
187948,-0.01,0.536,9.28
188008,0.488,0.565,9.989
188067,0.134,0.508,9.893
188127,-1.312,-1.322,11.147
188187,-0.642,0.23,10.87
188247,0.891,-1.044,9.309
188308,1.341,-0.105,8.552
188367,1.063,-0.144,9.194
188427,-0.057,-1.149,8.428
188487,0.029,-0.862,10.209
188548,-0.441,-1.848,10.161
188607,0.23,-1.379,9.155
188668,0.01,-1.532,10.391
188727,0.661,-1.666,8.782
188787,0.785,-1.101,11.013
188847,1.264,-1.465,9.874
188907,1.063,-1.686,8.61
188968,0.766,-1.446,10.19
189027,0.986,-1.551,9.328
189087,0.661,-1.638,10.429
189147,1.025,-2.471,8.724
189207,0.709,-3.39,9.692
189268,1.101,-2.911,8.437
189328,0.373,-2.586,9.558
189387,1.551,-2.04,9.165
189448,0.431,-2.749,8.61
189508,0.421,-2.289,10.171
189567,0.373,-2.509,10.314
189627,0.804,-2.164,9.117
189688,0.249,-1.724,11.578
189747,0.23,-2.327,10.199
189810,1.006,-2.193,9.519
189867,0.881,-2.423,10.927
189929,1.235,-2.164,10.42
189988,0.776,-1.341,8.399
190047,0.91,-0.919,8.926
190107,1.159,-1.12,8.255
190167,0.929,-0.824,8.82
190227,-0.096,-1.149,9.213
190288,1.034,-0.23,8.064
190348,0.393,-0.613,8.677
190407,0.23,-0.594,9.816
190467,0.929,-0.939,9.127
190527,1.149,-0.23,8.14
190588,0.306,0.0,9.471
190648,0.632,0.211,9.826
190708,0.661,0.373,8.973
190767,0.977,-0.105,8.073
190827,0.622,0.211,9.395
190888,0.105,-0.172,10.745
190948,0.393,-0.057,10.439
191008,0.306,-0.536,9.883
191067,0.421,-0.488,10.448
191128,0.441,0.239,10.046
191188,0.642,-0.115,10.295
191248,1.149,0.249,9.567
191307,0.795,0.402,9.673
191367,0.67,0.038,9.711
191427,0.192,0.144,10.123
191487,-0.306,-0.287,10.477
191547,-0.268,-0.603,10.554
191607,0.536,-0.23,10.333
191668,1.034,-0.316,9.778
191729,0.249,-0.345,10.305
191796,0.536,-0.268,9.596
191848,0.498,-0.057,9.807
191907,0.239,-0.211,9.539
191967,0.354,-0.048,10.879
192027,0.297,0.144,9.452
192088,0.354,-0.134,9.893
192147,-0.239,-0.172,10.544
192208,0.824,0.048,9.136
192267,-0.057,-0.077,11.665
192327,0.0,-0.508,10.803
192388,0.211,0.182,10.582
192447,0.172,0.201,10.343
192507,-0.278,-0.22,10.659
192568,-0.124,-0.163,9.912
192628,-0.326,0.096,9.692
192688,0.0,0.057,10.218
192748,-0.067,0.163,10.036
192808,-0.124,0.287,9.95
192867,-0.278,0.172,8.839
192927,-0.421,-0.354,10.391
192988,-0.575,0.22,11.1
193047,-0.852,-0.067,9.835
193108,-0.239,-0.479,11.013
193168,-0.45,-0.124,9.855
193228,-0.077,0.431,8.188
193288,-0.182,-0.862,8.408
193347,-0.536,0.412,9.098
193407,-0.622,-0.038,8.686
193468,-1.092,-0.297,7.977
193528,-0.986,-0.096,11.224
193588,-0.517,-1.044,10.918
193648,-0.211,0.077,9.787
193707,-0.201,-0.153,11.224
193768,0.23,-0.163,10.171
193828,-0.335,0.45,9.701
193887,-0.057,0.297,10.573
193947,-0.785,-0.057,9.606
194007,-2.308,-0.584,11.799
194068,-1.398,1.082,8.543
194128,-0.335,-0.871,10.745
194188,-2.155,0.268,8.428
194247,-0.259,0.316,12.555
194308,-0.441,-0.057,10.63
194367,-0.67,0.201,10.793
194427,0.153,0.22,10.104
194487,-0.766,0.287,9.644
194548,-0.603,-0.115,9.941
194608,-0.804,0.163,9.558
194667,-0.421,-0.316,10.247
194727,-0.728,-0.259,8.897
194787,-0.508,-0.144,10.266
194848,0.182,0.029,10.515
194907,-0.67,0.01,10.506
194967,-0.393,-0.105,9.807
195027,-1.207,-0.124,9.491
195087,-0.766,-0.488,10.496
195148,-0.69,-0.833,10.075
195207,-0.977,-0.584,9.596
195268,-0.804,-0.306,10.199
195328,-0.45,-0.67,10.075
195388,-0.843,-0.249,10.228
195447,-1.245,-0.182,11.195
195508,-1.168,-0.249,9.692
195567,-2.289,-0.613,9.692
195628,-0.996,-0.642,10.716
195688,-1.073,-0.115,9.835
195747,-1.168,-0.67,10.63
195823,-0.421,-0.326,9.768
195888,-0.939,-0.287,10.927
195948,-0.613,0.019,9.299
196007,-1.13,0.096,10.487
196068,-1.484,-0.431,8.973
196128,-1.59,0.057,10.353
196187,-1.657,-0.239,8.868
196247,-1.044,-0.441,11.617
196308,-1.532,-0.192,10.544
196367,-1.982,-0.201,9.96
196427,-1.542,-0.345,10.161
196487,-1.044,-0.345,11.396
196548,-0.929,-0.536,9.424
196607,-1.226,-0.259,11.167
196668,-1.877,-0.441,9.874
196727,-2.03,-0.335,8.945
196788,-1.188,-0.546,10.745
196847,-1.044,-0.287,10.822
196908,-1.705,-0.134,11.502
196967,-1.293,0.048,8.772
197028,-2.231,-0.383,9.404
197087,-0.804,0.488,10.41
197148,-1.245,-0.402,9.031
197207,-1.322,-0.431,6.455
197267,-0.747,-0.316,8.657
197327,-1.331,-0.048,9.797
197388,-1.954,-0.297,10.563
197447,-1.992,-0.354,5.018
197508,-1.14,-1.168,8.188
197568,-2.241,-0.306,7.345
197627,-1.714,-0.268,8.428
197687,-2.011,-0.709,7.882
197748,-2.624,-0.306,7.719
197817,-2.337,-0.096,10.113
197868,-2.318,-0.402,8.638
197928,-2.116,0.239,10.879
197987,-1.781,0.019,6.943
198047,-1.733,-0.22,8.667
198107,-1.379,-0.124,10.774
198168,-1.628,0.546,9.376
198227,-1.025,-0.651,11.808
198287,-2.03,0.431,9.002
198348,-0.91,0.441,9.366
198408,0.096,-0.958,7.901
198468,-2.059,-0.019,8.169
198527,-1.791,-0.498,10.985
198588,-0.833,-0.948,9.433
198647,-1.341,-1.484,7.499
198708,-0.871,-0.01,10.908
198768,-2.203,-0.134,11.636
198828,-2.212,-0.201,9.28
198887,-1.839,-0.134,10.678
198947,-1.283,-0.316,8.246
199007,-1.475,-0.728,7.451
199067,-1.14,-0.584,10.036
199128,-1.829,-0.852,10.084
199188,-2.002,-0.527,11.885
199248,-2.26,-1.168,9.931
199308,-2.289,-0.642,9.29
199368,-2.461,0.019,10.985
199427,-1.369,0.316,10.448
199487,-1.053,-0.421,9.759
199548,-1.954,-0.651,9.05
199607,-2.423,-0.373,9.328
199667,-2.586,-0.824,10.946
199728,-1.954,-0.077,9.5
199788,-1.149,0.086,9.404
199848,-2.279,-0.019,8.274
199908,-1.618,-0.201,10.927
199967,-1.207,-0.354,11.655
200028,-2.107,-0.575,9.989
200087,-1.877,-0.881,10.506
200148,-2.021,-0.766,9.337
200207,-1.714,-0.661,6.828
200268,-1.465,-0.613,9.041
200327,-1.733,-1.12,9.586
200387,-0.814,-0.23,11.53
200447,-2.107,-0.144,10.151
200507,-1.609,-0.651,10.151
200568,-0.555,-0.067,9.567
200628,-0.948,0.01,9.452
200687,-0.584,-0.412,9.577
200747,0.345,-0.393,8.073
200812,0.077,-0.278,8.916
200867,-0.153,-0.488,9.941
200927,-0.172,-0.421,9.874
200988,-0.824,-0.584,10.218
201048,-2.902,-0.45,11.617
201107,-2.059,-0.421,13.771
201167,-1.513,-0.862,12.555
201227,0.182,-1.149,7.614
201288,0.804,-0.804,4.903
201348,1.197,-1.13,5.737
201407,0.929,-0.287,8.054
201468,0.766,-0.622,9.529
201528,0.383,-1.082,10.611
201587,2.078,-0.613,11.866
201647,-0.048,-0.718,10.554
201708,-0.747,-0.661,10.295
201767,-0.728,-0.297,10.534
201827,-0.431,-0.594,9.558
201887,0.603,-0.144,8.868
201948,0.709,-0.46,8.782
202007,0.891,-0.546,9.51
202067,0.776,-0.709,10.63
202128,0.967,-1.188,9.912
202187,1.915,-1.322,10.008
202248,1.59,-1.226,8.581
202307,1.772,-0.019,6.512
202367,2.423,0.498,4.013
202427,1.733,-0.086,7.211
202488,0.536,-0.9,10.63
202547,-0.057,-1.044,13.034
202608,-0.498,-1.264,15.505
202667,-0.919,-1.063,12.948
202730,-0.048,-0.345,8.504
202794,-0.048,-0.431,7.815
202798,-0.259,-0.431,7.815
202868,2.126,-0.326,7.671
202927,3.007,-0.603,8.37
202987,2.442,-0.881,10.889
203048,2.682,-0.613,8.897
203107,1.475,-0.431,9.74
203168,0.977,-0.718,9.51
203227,0.335,-0.498,10.228
203287,0.919,-0.632,9.155
203347,0.575,-0.661,10.774
203408,1.398,-0.326,9.309
203468,0.977,-0.345,9.29
203528,0.996,-0.469,10.171
203587,1.571,-0.383,9.002
203647,1.36,-0.565,9.845
203707,1.36,-0.488,9.117
203768,0.804,-0.642,10.908
203827,1.791,-0.661,8.973
203887,1.255,-0.431,9.778
203947,0.891,-0.45,9.462
204007,1.389,-0.757,9.069
204067,1.159,-0.814,9.998
204128,0.718,-0.804,10.525
204187,1.417,-0.852,9.95
204247,0.757,-0.546,9.471
204307,1.437,-0.785,8.868
204367,1.063,-0.651,10.084
204428,0.862,-0.891,10.123
204487,1.178,-0.881,9.577
204547,1.571,-1.092,10.084
204608,0.555,-1.168,10.496
204668,1.006,-0.728,9.443
204727,1.13,-0.795,8.926
204787,1.092,-0.517,10.467
204848,1.417,-0.622,8.772
204908,1.408,-0.843,10.008
204967,0.824,-0.46,10.257
205027,1.255,-0.642,10.113
205088,1.465,-0.776,8.839
205147,1.13,-0.469,9.787
205208,0.69,-0.46,11.013
205267,1.073,-0.527,9.893
205328,0.977,-0.259,9.519
205387,0.661,-0.603,9.998
205447,1.369,-0.622,9.558
205508,1.666,-0.019,9.309
205567,1.006,-0.067,9.816
205628,0.45,-0.421,10.458
205688,0.642,-0.718,10.515
205748,0.555,-0.163,9.452
205808,0.862,-0.412,9.73
205867,0.642,-0.498,10.525
205928,0.067,-0.469,11.071
205988,1.197,-0.182,9.826
206048,0.91,-0.402,9.979
206107,0.747,-0.211,9.807
206168,1.14,-0.45,10.113
206228,1.025,-0.249,8.82
206287,0.986,-0.278,9.347
206347,0.508,-0.393,9.787
206408,0.431,-0.45,10.343
206467,0.757,-0.488,10.171
206527,0.804,-0.498,9.098
206588,0.469,-0.613,9.826
206647,0.977,-0.642,9.606
206708,1.111,-0.316,9.539
206767,0.575,-0.508,9.73
206827,0.469,-0.651,10.467
206887,0.871,-0.642,9.117
206948,0.249,-0.335,10.496
207007,0.881,-0.642,8.61
207068,-0.029,-0.412,10.381
207127,-0.211,-0.421,10.496
207187,0.421,-0.421,9.51
207248,0.239,-0.804,10.391
207307,0.239,-0.527,10.889
207312,-0.182,-0.527,10.889
207367,-0.192,-0.603,8.341
207427,0.373,-0.699,9.175
207487,0.067,-1.073,9.05
207548,-0.086,-1.255,9.969
207608,-0.326,-0.776,10.094
207667,-0.584,-1.216,10.448
207728,-0.498,-0.833,9.95
207787,-0.326,-0.843,9.663
207847,-0.115,-1.053,11.08
207907,-0.163,-1.245,9.634
207968,0.029,-1.015,10.927
208028,-0.287,-1.59,8.447
208087,-0.402,-1.513,8.906
208147,-0.096,-1.58,9.625
208207,-0.354,-1.58,9.548
208267,-0.402,-1.369,10.084
208327,-0.584,-1.551,10.534
208387,-1.12,-1.982,10.611
208448,-0.431,-1.848,10.573
208507,-0.469,-1.772,11.128
208567,0.057,-1.676,9.931
208627,0.057,-1.791,8.504
208688,0.019,-2.059,8.255
208747,0.0,-1.973,8.514
208808,-0.594,-2.126,9.041
208867,-0.958,-1.676,10.199
208928,-0.421,-1.59,9.912
208987,-0.306,-1.264,8.657
209047,-0.555,-1.532,9.108
209108,-0.364,-1.341,9.787
209167,-0.431,-1.456,10.171
209228,-0.22,-1.858,9.835
209287,-0.412,-2.26,9.778
209347,-0.373,-1.446,9.002
209407,-0.124,-1.676,8.839
209468,-0.393,-1.532,9.28
209527,0.029,-2.021,10.544
209588,-0.546,-1.867,8.935
209647,-0.508,-1.686,9.596
209708,-0.441,-1.504,9.615
209768,0.048,-1.954,9.222
209827,-0.192,-1.963,7.843
209888,-0.268,-1.647,9.376
209947,-0.45,-1.867,9.922
210008,-1.245,-1.504,9.797
210067,-0.747,-1.666,10.4
210128,-0.431,-1.8,10.4
210187,-0.613,-1.666,8.782
210247,-0.278,-1.695,10.669
210308,0.0,-1.82,10.008
210367,-0.01,-1.551,8.533
210427,-0.584,-1.302,8.859
210487,-0.077,-1.427,10.63
210547,-0.91,-1.8,8.973
210607,-0.575,-1.714,10.075
210667,-0.364,-1.073,10.084
210727,-0.517,-1.073,9.175
210788,-0.622,-1.369,9.577
210847,-0.622,-1.609,9.864
210907,-0.517,-1.59,9.558
210967,-0.785,-0.91,10.716
211027,-0.201,-1.475,11.004
211087,-0.124,-1.542,10.132
211147,-0.096,-1.235,9.577
211207,-0.498,-1.609,9.404
211267,-0.067,-0.891,9.481
211327,-0.316,-1.59,9.366
211387,-0.268,-1.302,9.452
211448,-0.345,-1.053,11.004
211507,-0.67,-1.149,9.424
211568,-0.326,-1.293,8.878
211627,-0.029,-1.302,10.448
211687,-0.412,-1.044,10.171
211746,-0.134,-1.331,10.946
211807,-0.919,-1.36,9.73
211867,-0.163,-1.197,10.266
211927,-0.153,-0.871,8.667
211988,-0.441,-1.216,8.361
212047,0.144,-1.006,11.262
212108,-0.728,-1.36,8.983
212167,-0.412,-0.986,10.573
212227,-0.46,-1.188,8.399
212287,-0.124,-0.795,10.266
212347,-0.555,-1.753,8.428
212407,-0.192,-0.852,9.586
212468,-0.833,-0.728,9.912
212528,-0.757,-1.561,8.983
212587,0.345,-1.293,10.113
212648,-0.986,-1.13,8.629
212707,-0.469,-1.255,9.855
212767,0.038,-1.465,9.366
212828,-0.555,-0.958,10.228
212888,-0.345,-1.264,8.744
212947,0.192,-0.996,9.979
213007,-0.881,-1.207,8.705
213067,-0.488,-1.188,10.056
213127,-0.795,-1.513,8.064
213187,-0.441,-1.523,9.998
213247,-0.402,-1.465,9.002
213308,-0.029,-1.456,10.649
213368,-0.22,-1.379,9.242
213427,-0.891,-1.341,8.964
213488,-0.45,-1.264,10.697
213547,-0.393,-1.369,9.634
213608,-0.469,-1.178,9.539
213667,-0.594,-1.417,9.778
213728,-0.124,-1.302,10.669
213789,-0.431,-1.111,9.29
213847,-0.421,-0.939,9.558
213907,-0.393,-0.699,8.274
213968,-0.431,-0.69,9.069
214028,-0.441,-0.527,10.755
214087,-0.278,-0.575,8.504
214148,-0.23,-1.341,10.467
214208,-0.517,-0.297,9.749
214268,-0.383,-0.373,8.753
214327,0.144,-0.948,10.343
214388,-0.517,-0.747,8.753
214447,-0.144,-0.354,9.807
214508,-0.948,-1.034,9.74
214568,-0.46,-0.728,9.318
214627,-0.852,-0.642,9.778
214687,-0.536,-1.006,10.496
214748,-0.91,-0.709,9.088
214823,-0.91,-0.814,9.51
214827,-0.67,-0.814,9.51
214887,-0.565,-1.053,9.673
214947,-0.785,-0.613,9.615
215008,-0.91,-0.421,10.104
215067,-1.408,-0.431,10.515
215127,-0.096,-0.287,8.677
215188,-0.613,-0.747,9.558
215247,-1.053,-0.297,10.113
215307,-0.287,-0.163,10.247
215368,-0.45,-0.421,9.194
215428,-0.536,-0.565,9.299
215487,-1.178,-0.699,11.358
215547,-1.12,-0.632,9.663
215607,-1.101,-0.709,9.117
215667,-0.795,-0.814,9.998
215728,-1.475,-0.622,10.132
215793,-1.207,-0.479,10.458
215847,-0.871,-0.977,9.797
215907,-0.488,0.345,8.255
215968,-1.025,-0.642,9.222
216027,-0.833,-1.082,10.439
216088,-1.168,0.297,9.855
216147,-1.36,0.0,9.222
216208,-1.044,-0.824,10.209
216268,-1.398,-0.22,9.318
216327,-1.417,-0.575,10.18
216387,-1.149,-0.555,10.707
216448,-0.91,-0.326,10.199
216507,-1.073,-0.632,10.027
216567,-1.456,-0.536,9.931
216628,-0.939,-0.642,9.874
216688,-1.159,-0.613,8.868
216748,-1.293,-0.479,10.199
216808,-0.661,-0.757,9.768
216868,-1.58,-0.412,10.64
216927,-0.929,-0.172,10.017
216988,-1.437,-0.603,8.686
217047,-1.82,-0.211,7.949
217107,-1.446,-0.115,11.224
217168,-1.618,-0.01,9.606
217228,-1.513,-0.441,9.175
217287,-1.705,-0.105,9.385
217348,-1.791,-0.622,9.251
217408,-1.226,-0.124,10.87
217468,-1.829,-0.469,8.198
217527,-0.824,-0.69,9.711
217588,-0.699,-0.373,9.471
217648,-1.647,-0.843,8.983
217708,-1.283,-0.814,9.175
217767,-1.743,-0.249,10.554
217827,-1.188,-0.029,9.673
217888,-1.044,-0.134,9.864
217947,-0.594,-0.115,9.462
218007,-1.293,-0.153,10.285
218067,-1.456,-0.153,10.314
218128,-1.006,-0.105,9.088
218188,-1.398,-0.268,9.251
218247,-1.36,-0.345,9.108
218307,-0.498,-0.785,8.514
218368,-1.494,-0.565,8.935
218428,-1.542,-0.747,9.74
218488,-1.618,-0.776,9.27
218548,-1.896,-0.881,10.228
218608,-1.542,-0.622,10.898
218667,-1.36,-0.699,9.088
218729,-1.408,-0.862,9.146
218803,-1.235,-0.373,9.941
218867,-0.69,-0.029,9.682
218928,-1.647,-0.134,9.376
218987,-1.571,0.105,9.893
219047,-1.245,0.278,9.194
219107,-1.657,-0.029,9.663
219167,-1.896,0.019,11.071
219228,-2.27,0.182,10.678
219287,-1.092,-0.144,8.571
219347,-1.063,-0.019,9.95
219408,-0.68,-0.68,9.452
219468,-1.705,-1.197,10.592
219528,-1.475,-0.919,9.261
219587,-1.618,-0.977,9.06
219647,-0.661,-0.958,8.418
219707,-2.04,-0.651,9.701
219767,-1.427,-0.967,8.983
219828,-1.753,-0.508,10.429
219887,-1.456,-0.306,8.217
219948,-1.571,-0.536,10.534
220007,-1.379,-0.402,9.835
220067,-1.331,-0.699,9.855
220128,-1.111,-0.795,10.487
220188,-0.498,-0.91,9.433
220247,-0.766,-1.006,8.581
220308,-1.274,-0.69,9.797
220368,-1.35,-0.814,9.845
220428,-1.13,-0.421,9.73
220488,-1.398,-0.402,10.496
220548,-0.919,-0.259,8.935
220608,-1.58,-0.115,11.377
220667,-0.747,-0.115,9.213
220728,-0.958,-0.373,10.841
220788,-0.881,-0.527,9.376
220847,-0.919,-0.393,9.95
220908,-0.632,-0.843,8.868
220967,-1.149,-0.412,10.477
221028,-1.188,-0.46,9.05
221088,-1.484,-0.718,9.969
221148,-1.312,0.124,9.606
221208,-1.743,-0.086,9.816
221267,-1.149,-0.23,10.621
221328,-0.747,-0.469,9.108
221388,-0.68,-0.632,9.529
221447,-1.35,-0.479,9.711
221507,-1.12,-0.9,10.42
221568,-0.661,-0.402,9.941
221628,-1.609,0.077,10.841
221688,-0.986,-0.498,10.094
221747,-0.546,-0.46,8.447
221817,-0.555,-0.421,9.634
221887,-0.575,-0.488,8.772
221947,-1.389,-1.197,10.573
222007,-1.12,-0.843,9.471
222067,-1.609,-0.776,10.783
222127,-1.925,-0.843,11.004
222188,-0.929,-0.565,9.711
222248,-0.967,-0.68,9.893
222307,-1.159,-0.594,10.822
222367,-0.584,-0.278,9.902
222427,-0.967,-0.632,9.471
222487,-0.699,-0.661,8.983
222548,-1.245,-0.852,10.171
222607,-0.996,-0.804,8.973
222667,-1.322,-0.46,10.228
222727,-1.513,-1.322,10.994
222787,-0.766,-0.766,9.835
222847,-1.513,-0.804,9.711
222908,-0.996,-0.871,9.816
222967,-0.651,-0.814,8.82
223028,-1.781,-0.642,9.653
223087,-1.35,-0.833,8.629
223147,-1.293,-0.163,10.238
223207,-0.948,-0.306,9.5
223267,-0.757,-0.268,9.692
223327,-1.293,0.364,10.764
223387,-1.12,0.249,9.519
223447,-1.197,0.421,9.644
223507,-1.188,0.259,9.098
223568,-0.785,0.335,10.238
223627,-1.494,0.757,10.774
223688,-0.833,0.402,9.625
223747,-0.278,0.737,9.606
223818,-1.618,0.843,10.372
223887,-1.274,1.015,9.328
223947,-0.632,0.9,9.232
224008,-1.168,0.977,10.027
224068,-1.341,0.67,10.812
224127,-0.651,0.508,10.161
224188,-0.546,0.929,9.596
224247,-0.268,0.776,10.333
224307,-0.632,1.149,9.931
224367,-0.814,1.12,10.64
224428,-0.852,1.235,10.678
224487,-0.804,0.594,9.366
224548,-0.211,1.149,9.596
224607,-0.977,1.283,9.826
224667,-1.034,1.006,9.673
224728,-0.326,0.546,10.41
224803,-0.871,0.9,9.031
224848,-1.178,1.053,9.079
224908,-1.322,1.149,10.697
224968,-0.536,1.446,10.985
225028,-0.651,1.331,9.155
225087,-0.345,1.542,9.041
225147,-1.12,1.82,8.83
225208,-0.699,1.178,9.098
225267,-1.197,1.676,9.74
225327,-0.785,0.948,8.638
225388,-1.063,1.8,9.347
225448,-0.508,1.676,8.993
225507,-0.862,2.193,8.696
225568,-0.402,1.992,9.232
225627,-1.226,1.695,9.759
225688,-0.709,1.81,8.926
225748,-0.575,1.839,8.906
225815,-0.929,1.954,8.945
225888,-1.168,2.155,10.439
225948,-0.843,1.877,10.831
226007,-1.226,1.973,11.521
226068,-1.111,1.743,11.425
226128,-0.795,2.088,10.783
226188,-0.029,1.666,11.511
226247,-0.824,1.618,10.63
226307,-0.383,1.724,9.883
226368,-0.555,1.35,8.485
226427,-0.757,0.996,9.807
226488,-1.255,1.925,11.004
226548,-1.264,2.078,11.205
226608,-1.532,2.461,11.167
226668,-1.331,1.887,10.563
226727,-0.824,2.145,10.63
226800,-0.115,2.231,9.701
226847,-0.402,2.222,9.433
226907,-0.613,1.877,8.935
226967,-0.239,1.551,8.734
227027,-1.245,1.705,8.418
227087,-0.632,1.389,8.686
227148,-0.488,2.825,9.318
227208,-1.149,1.944,8.686
227267,-1.053,1.925,10.046
227327,-1.302,1.063,9.893
227387,-1.178,1.092,11.875
227448,-0.747,1.542,11.358
227508,-0.268,1.561,10.831
227568,-0.153,1.14,11.128
227627,-0.737,0.718,10.065
227687,-1.015,0.517,9.002
227748,-0.958,0.536,10.515
227808,-0.958,0.412,11.339
227867,-1.207,0.508,11.004
227928,-1.12,0.192,10.927
227987,-0.441,0.651,10.946
228047,0.124,0.23,9.06
228107,-0.306,-0.057,9.941
228168,-0.795,0.259,10.276
228227,-0.747,-0.077,10.036
228287,-0.527,0.364,9.127
228347,-0.46,0.239,8.897
228407,-0.622,0.211,9.424
228468,-0.651,0.01,9.922
228527,-0.632,0.211,10.084
228588,-0.871,-0.201,10.87
228648,-1.542,-0.048,11.645
228707,-1.599,-0.01,12.345
228767,-0.441,0.718,10.295
228828,0.412,-0.115,10.812
228888,0.163,-0.297,10.697
228948,-0.163,-0.728,9.692
229007,-0.622,-0.172,9.414
229067,-0.871,-0.278,9.041
229128,-0.891,0.211,9.385
229187,-0.565,0.479,9.337
229247,-0.622,0.412,9.414
229307,-0.46,0.067,9.51
229367,-0.804,-0.441,10.228
229427,-1.053,0.172,9.912
229487,-0.584,-0.192,10.305
229547,-0.508,0.182,9.385
229608,-0.498,-0.172,9.261
229667,-0.747,0.22,9.261
229728,-0.718,-0.163,9.088
229787,-0.67,-0.163,9.759
229848,-0.958,-0.259,9.73
229908,-0.584,-0.354,9.194
229968,-0.871,-0.536,9.577
230027,-0.737,-0.393,9.366
230087,-0.9,-0.469,9.874
230148,-0.776,-0.354,9.567
230207,-1.073,-0.737,10.774
230267,-0.852,-0.287,9.634
230327,-0.412,-0.402,8.945
230387,-0.469,-0.345,9.146
230447,-0.709,-0.747,9.855
230508,-0.421,-0.259,8.83
230567,-0.622,-0.862,9.74
230628,-1.446,-0.795,10.898
230688,-1.207,-0.785,10.879
230748,-0.967,-0.632,9.941
230807,-0.527,-0.91,10.036
230868,-1.044,-0.91,9.931
230927,-1.302,-0.69,10.688
230999,0.086,-0.584,9.797
231068,-1.082,-0.517,9.012
231127,-0.9,-0.939,10.831
231187,-0.297,-1.168,6.79
231247,-0.939,-1.542,7.824
231308,-0.354,-1.638,9.596
231368,-0.182,-0.824,8.045
231428,-1.006,-0.785,8.514
231487,-1.274,-0.326,10.726
231547,-0.833,-0.881,9.826
231607,-1.513,-0.575,10.4
231667,-0.498,-0.862,9.74
231728,-1.082,-1.159,9.941
231787,-0.211,-0.91,9.376
231848,-0.785,-0.862,9.481
231907,-0.929,-0.488,10.563
231968,-0.316,-0.067,10.046
232027,-0.268,-0.718,9.73
232088,0.0,-0.239,8.657
232148,-0.958,-0.354,9.318
232208,-0.354,-0.201,9.05
232268,-0.891,-0.603,9.184
232327,-0.354,-0.642,8.571
232387,0.086,-0.45,9.194
232447,0.402,-0.603,8.724
232507,-0.019,-0.757,8.37
232567,-0.201,-0.919,8.935
232627,-0.651,-0.795,9.902
232687,-0.393,-0.977,10.467
232807,-0.431,-0.785,10.86
232868,-0.441,-0.68,9.768
232927,-0.297,-0.871,9.682
232988,-0.488,-0.383,8.887
233047,-0.412,-0.383,10.918
233107,-0.718,-0.287,10.353
233168,-0.68,-0.469,9.922
233228,-0.393,-0.584,9.835
233287,-0.46,0.057,9.855
233348,-0.096,-0.153,9.835
233408,-0.651,-0.785,9.203
233467,-0.555,-0.527,9.203
233527,-0.804,-0.996,9.73
233593,-0.192,-0.172,8.868
233648,-0.383,-0.776,10.611
233708,-0.594,-1.12,10.602
233767,-0.766,-0.469,10.18
233828,-0.469,-0.891,11.052
233887,-0.441,-0.527,9.433
233947,-0.23,-0.498,9.51
234007,-0.029,-0.508,10.036
234068,-0.335,-0.776,9.586
234128,-0.153,-0.603,9.96
234188,0.0,-0.527,10.056
234248,-0.163,-0.469,10.132
234308,0.211,-0.881,9.615
234368,-0.345,-0.22,9.031
234427,-0.201,-0.728,8.495
234487,-0.642,-0.986,9.558
234547,-0.393,-0.373,10.18
234607,-0.373,-0.642,10.621
234667,-0.728,-0.843,9.883
234727,-0.316,-0.594,9.29
234787,-0.297,-0.383,9.797
234847,-0.306,-0.498,9.452
234907,-0.326,-0.163,9.74
234968,-0.268,-0.134,10.238
235034,-0.421,-0.096,10.247
235087,-0.163,-0.718,9.539
235147,-0.019,-0.508,8.217
235207,-0.287,0.01,10.113
235267,-1.053,-1.073,10.084
235328,-0.431,-0.728,8.782
235387,-0.843,-0.68,9.519
235448,-0.68,-0.91,9.194
235508,-0.804,-0.881,10.573
235567,-0.632,-0.326,9.05
235628,-0.69,-0.958,8.983
235687,-0.728,-0.393,10.257
235747,-1.063,-0.862,10.496
235808,-0.575,-0.527,9.299
235867,-0.881,-0.958,11.933
235927,-0.278,-0.68,9.347
235988,-0.862,-0.948,11.377
236047,0.326,-1.025,9.682
236107,-0.498,-0.843,10.927
236167,-0.383,-1.302,9.041
236227,-0.948,-1.293,11.349
236288,-0.594,-1.302,10.295
236348,-0.46,-0.718,11.933
236407,-0.373,-1.274,11.971
236468,-0.632,-0.498,10.554
236528,-0.029,-1.188,11.377
236587,-0.23,-1.322,9.826
236647,-0.287,-1.264,8.648
236707,-0.086,-1.561,9.711
236768,-0.239,-0.881,10.305
236827,-0.115,-1.034,8.763
236887,-0.757,-1.14,11.368
236947,-0.584,-1.312,10.783
237008,-0.622,-1.226,8.878
237067,0.096,-0.843,8.361
237127,-0.192,-1.341,9.29
237187,0.01,-1.657,9.653
237248,-0.268,-1.379,8.294
237307,-0.22,-1.101,9.577
237367,-0.594,-1.379,8.868
237427,-0.402,-1.015,10.975
237488,-0.402,-1.331,8.839
237547,-0.517,-1.638,9.931
237607,-0.029,-1.906,10.065
237667,-0.508,-1.8,8.437
237728,-0.527,-1.887,9.634
237787,-0.029,-2.126,9.481
237848,-0.728,-2.069,8.859
237908,-0.306,-2.107,8.859
237967,-0.364,-2.03,10.649
238028,-0.23,-2.27,8.61
238088,-0.613,-2.03,10.362
238147,-1.034,-1.513,10.439
238207,-0.555,-1.733,10.707
238268,-0.134,-1.705,11.09
238327,-0.737,-1.887,9.519
238387,-0.048,-1.781,10.161
238448,-0.038,-2.27,10.238
238507,-0.402,-2.557,8.504
238567,-0.048,-2.95,9.548
238627,-0.23,-2.193,9.117
238688,-0.728,-2.184,9.989
238748,-0.326,-2.643,8.37
238807,-0.354,-2.844,9.931
238868,-0.508,-2.538,10.238
238928,-0.029,-2.873,8.792
238987,-0.402,-2.576,9.653
239048,-0.517,-2.212,10.276
239107,-0.508,-2.547,9.73
239168,-0.192,-2.806,9.893
239228,-0.412,-2.404,9.692
239288,-0.278,-2.777,9.653
239348,-0.546,-2.873,8.878
239408,-0.498,-2.27,10.927
239468,-0.603,-2.385,10.027
239532,0.096,-2.289,10.171
239588,-0.048,-2.547,8.629
239647,-0.239,-1.982,10.563
239707,-0.632,-2.049,10.439
239767,-0.555,-2.298,10.496
239828,-0.651,-1.465,9.625
239887,-0.182,-1.063,10.056
239947,-0.441,-1.484,8.993
240008,-0.172,-1.772,10.467
240067,-0.038,-1.475,8.705
240128,-0.642,-1.532,11.023
240187,-0.134,-1.772,10.343
240247,-0.067,-1.686,8.255
240307,-0.211,-1.149,9.96
240367,-0.747,-0.833,10.448
240427,0.019,-1.647,10.353
240487,-0.469,-1.609,9.96
240547,-0.546,-1.245,7.949
240607,-0.335,-0.814,10.027
240667,-0.182,0.22,9.558
240727,-0.402,-0.69,9.51
240788,-0.393,-0.316,11.76
240848,-0.306,-0.555,10.295
240907,-0.345,-0.651,9.902
240967,-0.345,-0.517,9.759
241027,-0.804,-0.651,8.466
241087,-0.086,-0.402,11.042
241147,-1.063,-0.67,8.303
241207,-0.077,-0.421,10.094
241267,-0.718,-0.508,10.314
241328,-0.287,-0.153,10.525
241387,-0.824,-0.757,7.728
241448,-0.297,-0.651,10.285
241508,-0.297,-0.651,9.021
241568,-1.226,-0.22,8.945
241627,-1.264,-0.431,11.54
241687,-1.571,-0.287,9.357
241747,-1.676,-0.402,10.056
241816,-1.532,-0.862,10.937
241887,-1.513,-0.412,9.692
241947,-1.331,-0.364,9.96
242007,-1.456,-0.46,9.404
242068,-1.59,-0.757,8.782
242128,-1.781,0.297,9.28
242188,-1.867,0.096,10.985
242247,-1.743,-0.192,9.902
242307,-1.915,-0.096,10.448
242367,-1.935,0.383,9.366
242427,-1.81,-0.048,11.396
242487,-1.877,-0.728,10.477
242548,-1.331,-0.067,8.763
242608,-1.858,0.306,8.294
242667,-1.561,0.019,8.399
242728,-1.532,-0.69,8.667
242790,-2.03,-0.488,9.328
242848,-2.116,-0.201,9.471
242907,-2.26,-0.335,9.155
242967,-2.605,-0.239,10.391
243027,-1.935,-0.536,9.692
243088,-2.184,-0.651,9.452
243148,-2.164,-0.479,9.835
243208,-1.906,-0.172,10.199
243267,-2.279,-0.124,9.318
243328,-2.184,-0.345,10.621
243387,-2.145,-0.373,10.046
243447,-1.973,-0.728,10.123
243507,-1.944,-1.015,9.893
243568,-2.116,-0.469,9.28
243627,-1.647,-0.306,9.395
243688,-1.896,-0.211,9.222
243748,-1.839,-0.421,9.117
243818,-2.03,-0.871,9.108
243887,-2.298,-0.718,10.458
243948,-2.04,-0.268,10.314
244007,-2.662,-0.421,9.845
244067,-2.251,-0.306,10.324
244127,-2.107,-0.575,9.893
244187,-1.935,-0.622,9.337
244248,-2.318,-0.412,10.151
244308,-1.81,-0.718,10.812
244368,-1.896,-0.402,10.688
244428,-1.867,-0.23,10.18
244488,-1.925,-0.297,9.797
244547,-2.002,-0.038,9.864
244607,-2.078,-0.441,10.036
244667,-1.896,-0.287,9.701
244728,-1.666,-0.086,10.046
244787,-1.666,-0.201,10.381
244847,-2.107,-0.038,10.065
244907,-1.973,-0.201,9.883
244968,-1.791,-0.364,9.874
245028,-1.638,-0.45,9.989
245088,-2.002,-0.163,10.161
245148,-2.327,0.335,9.912
245208,-1.915,-0.402,8.897
245267,-1.944,-0.134,9.826
245328,-1.973,-0.096,9.922
245393,-1.724,-0.048,10.075
245448,-1.829,-0.144,9.328
245507,-1.8,-0.105,9.577
245568,-1.887,-0.144,9.404
245627,-1.609,-0.172,9.673
245688,-1.513,0.01,9.922
245750,-0.891,-0.105,9.778
245809,-0.622,-0.048,10.075
245867,-0.421,0.077,9.874
245927,-0.441,-0.316,9.5
245988,-0.22,-0.172,9.941
246048,-0.163,-0.172,9.701
246108,-0.115,-0.124,9.5
246168,-0.326,-0.048,9.395
246227,-0.239,-0.268,9.749
246288,-0.22,-0.105,10.008
246348,-0.22,-0.249,9.855
246408,-0.249,-0.268,9.807
246467,-0.182,-0.01,9.845
246527,-0.124,0.144,9.682
246588,-0.239,0.115,9.251
246648,-0.278,0.211,9.912
246707,-0.23,0.326,9.912
246768,-0.029,-0.029,9.989
246828,0.019,0.096,9.797
246887,0.134,0.201,9.74
246948,0.086,0.048,9.855
247007,-0.086,0.134,9.855
247067,-0.086,0.297,10.257
247127,-0.029,0.441,10.132
247187,0.23,0.402,10.439
247247,0.163,0.421,9.883
247307,-0.115,0.393,9.615
247368,-0.048,0.373,9.309
247428,0.124,0.354,10.209
247488,0.268,0.182,10.324
247547,-0.172,0.364,9.634
247608,0.105,0.153,9.893
247668,0.096,0.124,10.065
247728,0.316,0.565,10.104
247788,0.622,0.565,9.577
247847,0.383,0.469,9.539
247908,0.891,0.259,10.065
247967,1.015,0.958,9.108
248027,0.68,0.565,9.539
248088,0.594,0.603,9.855
248148,1.025,0.661,9.96
248207,0.728,0.306,9.433
248267,0.948,0.144,9.021
248328,0.651,0.201,9.663
248388,0.45,0.0,10.391
248447,0.469,0.364,10.228
248507,0.67,0.91,10.257
248568,0.766,0.651,10.41
248628,0.833,0.555,10.257
248688,1.111,0.057,10.017
248748,0.67,0.01,9.299
248807,0.69,-0.144,9.376
248868,0.661,-0.259,9.529
248927,0.824,-0.421,9.634
248988,0.709,-0.144,9.759
249048,0.508,-0.172,9.682
249107,0.833,-0.115,9.673
249168,0.45,-0.268,9.558
249227,0.67,-0.555,9.337
249287,1.034,-1.015,10.343
249347,0.967,-1.178,10.113
249407,0.929,-1.302,10.276
249468,0.651,-1.053,10.065
249528,0.565,-1.513,10.458
249593,0.651,-0.843,10.228
249648,0.402,-1.235,10.353
249708,0.632,-1.638,9.826
249767,0.536,-1.839,10.123
249824,0.297,-1.839,10.573
249888,0.527,-2.241,9.318
249948,0.201,-2.27,9.318
250007,0.278,-2.346,9.835
250068,0.287,-2.662,9.385
250127,0.268,-2.5,9.558
250187,-0.01,-2.595,9.299
250248,0.124,-2.816,9.749
250308,0.441,-3.055,10.171
250367,0.172,-2.883,9.835
250427,0.182,-2.959,9.347
250487,0.249,-2.902,9.529
250548,0.536,-3.007,9.27
250607,0.287,-2.816,9.031
250667,0.728,-2.806,9.5
250727,0.144,-2.471,9.519
250787,-0.077,-2.777,9.96
250848,0.23,-3.122,10.582
250907,-0.144,-3.361,10.487
250968,-0.297,-3.582,10.065
251028,-0.67,-3.687,9.213
251087,-0.259,-3.294,8.945
251148,-0.373,-3.285,8.629
251208,-0.316,-2.95,9.519
251267,-0.153,-3.266,9.519
251327,-0.239,-3.199,9.519
251387,-0.354,-2.844,10.218
251448,-0.287,-3.093,9.701
251507,-0.46,-3.39,9.941
251568,-0.105,-3.026,10.104
251627,-0.201,-3.103,9.73
251687,-0.737,-3.486,9.519
251747,-0.584,-3.438,9.72
251808,-0.948,-4.032,10.18
251867,-0.699,-3.84,9.634
251927,-0.651,-3.668,10.353
251988,-0.412,-4.108,10.295
252047,-0.661,-4.003,10.467
252108,-0.287,-3.754,10.199
252168,-0.546,-3.85,10.353
252228,-0.709,-4.041,10.458
252287,-0.632,-3.448,9.864
252347,-0.124,-3.553,10.381
252407,-0.201,-4.013,9.864
252468,-0.057,-3.821,9.759
252528,-0.038,-3.687,9.491
252588,-0.172,-3.706,9.73
252647,-0.048,-3.745,9.969
252707,-0.488,-3.946,9.519
252768,-0.354,-3.984,9.29
252828,-0.46,-3.888,9.51
252887,-0.326,-3.783,8.878
252948,-0.345,-4.003,9.021
253007,-0.038,-3.534,9.27
253067,-0.105,-3.812,9.002
253127,-0.22,-3.677,9.874
253188,-0.172,-4.032,9.73
253248,-0.469,-4.175,9.567
253307,-0.01,-4.089,9.653
253368,-0.105,-3.888,9.816
253428,-0.192,-3.802,9.031
253487,0.057,-3.859,8.648
253547,0.163,-3.285,8.437
253607,0.153,-3.649,9.711
253667,-0.259,-3.879,9.682
253729,0.182,-3.285,7.863
253787,0.441,-2.691,9.079
253847,0.326,-2.959,9.663
253907,-0.144,-3.045,10.343
253968,0.45,-2.883,9.251
254027,0.096,-2.337,10.621
254087,0.412,-1.973,9.385
254147,0.124,-1.609,11.138
254208,0.737,-1.293,9.51
254267,0.718,-1.389,9.682
254328,0.757,-1.341,10.918
254388,1.149,-0.881,9.404
254447,0.9,-0.536,9.692
254507,0.709,0.019,10.515
254568,0.421,-0.086,10.669
254627,0.757,-0.249,10.142
254688,0.316,-0.029,10.084
254748,1.034,0.172,9.462
254813,1.216,0.45,9.366
254868,0.862,0.642,10.429
254927,1.188,1.111,10.199
254987,1.168,1.063,10.602
255047,0.354,1.159,10.429
255107,0.862,0.986,10.515
255168,1.322,1.216,9.682
255228,1.389,1.35,10.467
255288,0.91,1.044,10.429
255348,1.245,0.498,9.941
255407,1.695,0.316,9.874
255468,0.785,1.427,9.213
255528,0.565,1.226,9.673
255588,0.891,1.542,10.391
255648,0.757,1.561,9.95
255708,1.188,1.867,10.084
255767,1.063,1.437,9.653
255827,0.757,1.618,9.826
255888,0.948,1.532,10.113
255947,0.939,1.504,10.295
256007,0.852,1.867,10.649
256068,0.852,1.647,11.416
256127,1.149,1.264,9.328
256188,1.207,1.302,9.165
256248,1.264,2.03,8.849
256308,1.092,1.714,9.337
256367,1.341,2.116,8.916
256428,1.245,1.82,8.399
256488,1.092,1.504,8.792
256548,1.063,1.226,8.504
256608,1.159,1.389,9.184
256667,0.871,1.12,8.973
256727,1.322,0.862,8.198
256788,1.772,1.025,6.78
256847,0.575,-0.057,10.372
256908,0.0,0.613,11.147
256967,0.306,-0.661,11.406
257027,0.565,0.354,9.615
257088,2.337,0.737,8.792
257148,1.111,0.297,8.025
257207,0.852,0.871,9.663
257268,1.006,0.68,9.385
257327,0.469,0.479,8.906
257387,0.192,0.45,9.079
257448,0.23,-0.153,9.021
257507,1.571,0.699,9.213
257567,1.532,-0.23,8.274
257628,0.441,-0.23,9.548
257688,0.306,0.23,10.285
257748,1.044,0.019,11.387
257807,1.666,0.172,10.324
257867,1.207,0.201,10.199
257928,1.36,-0.469,9.749
257988,0.651,-0.22,9.73
258047,1.14,0.019,10.209
258108,1.302,0.345,9.519
258167,1.111,-0.105,8.868
258227,0.929,0.354,10.18
258288,1.274,0.144,10.276
258347,0.939,0.057,10.199
258408,0.603,-0.086,9.644
258467,0.373,-0.192,10.295
258527,1.264,-0.144,9.366
258588,0.498,-0.201,9.347
258647,0.393,-0.508,10.218
258708,0.919,-0.163,10.429
258767,0.201,-0.048,10.649
258827,0.086,-0.249,10.985
258887,0.919,0.038,10.448
258947,0.575,-0.048,10.333
259008,0.613,-0.306,11.55
259068,0.747,-0.23,10.831
259128,0.594,-0.278,9.835
259188,1.053,-0.23,9.127
259248,0.67,-0.163,9.194
259308,0.67,-0.201,9.74
259368,0.46,-0.68,10.199
259427,0.364,0.364,10.755
259487,0.172,-0.115,11.339
259547,1.36,-0.153,9.874
259607,0.958,0.115,9.606
259668,0.527,-0.345,10.726
259727,0.249,-0.144,10.534
259788,0.441,-0.335,9.376
259847,0.048,-0.268,10.745
259908,0.038,-0.479,11.358
259968,0.278,-0.603,11.224
260027,0.69,-0.479,10.046
260088,0.757,0.019,9.146
260148,1.13,0.067,10.065
260208,0.871,0.431,8.916
260268,0.929,-0.45,8.926
260327,0.814,0.488,8.763
260387,0.804,-0.077,9.749
260447,0.737,-0.153,9.711
260508,0.594,0.01,10.477
260568,0.833,0.201,9.491
260627,0.728,0.01,9.615
260688,0.421,0.421,11.253
260748,0.316,0.441,11.406
260813,0.441,0.69,11.013
260887,0.68,-0.105,10.218
260947,0.776,0.124,10.056
261007,1.034,0.383,9.433
261067,1.379,0.373,8.753
261128,1.149,0.393,9.337
261187,1.369,0.852,9.031
261247,0.642,0.642,10.745
261307,0.335,-0.259,10.621
261368,0.421,0.22,8.504
261428,1.274,0.718,7.863
261487,1.053,-0.335,8.313
261548,0.881,-0.23,8.983
261607,-0.105,-0.441,9.136
261667,-0.01,-0.632,10.161
261730,-0.038,-0.508,12.603
261789,0.048,-1.724,13.915
261847,1.312,-0.239,10.104
261907,-0.69,-0.795,8.504
261968,0.23,0.086,9.855
262027,0.239,1.168,9.184
262087,0.613,0.498,8.849
262148,0.354,-0.852,10.544
262207,0.393,-0.757,11.224
262267,0.306,-0.996,11.234
262328,0.412,-0.259,10.86
262387,0.488,-1.676,11.827
262448,0.22,-1.676,11.712
262508,0.891,-1.599,11.856
262567,0.67,-1.571,11.042
262628,0.077,-1.733,10.649
262687,0.306,-1.695,11.214
262748,1.293,-0.891,9.883
262807,1.417,-1.925,10.851
262868,1.082,-1.216,8.926
262928,0.891,-0.814,7.681
262987,1.063,-0.661,9.519
263048,0.919,-0.345,10.937
263108,0.488,1.437,10.18
263167,0.546,0.096,10.075
263227,1.053,0.144,8.983
263288,0.594,0.029,8.59
263347,0.278,1.733,10.218
263408,-0.172,-0.517,11.1
263467,-0.239,-0.565,11.349
263527,1.063,0.153,9.749
263588,1.379,0.0,9.95
263648,1.465,-0.785,10.621
263708,0.536,-0.105,10.305
263767,1.006,-0.192,9.96
263828,0.68,-0.172,10.276
263887,0.804,0.124,10.008
263947,0.69,-0.144,10.496
264008,0.642,0.402,9.433
264068,0.776,0.029,10.238
264128,0.776,-0.105,10.4
264187,1.159,0.124,12.067
264248,1.255,-0.057,10.64
264308,1.063,0.153,9.663
264368,0.91,-0.105,9.663
264427,0.287,0.326,10.19
264488,0.603,0.01,10.247
264547,0.373,0.345,10.151
264607,0.852,-0.01,10.381
264667,0.9,0.124,8.083
264728,0.776,0.153,9.012
264804,0.622,0.067,9.06
264868,0.402,0.383,10.104
264927,0.718,0.259,9.424
264988,0.335,0.278,8.916
265047,1.207,0.69,9.644
265107,0.488,0.23,10.094
265172,0.929,0.364,10.285
265228,0.01,1.082,9.749
265287,-0.019,0.709,10.027
265347,0.871,1.437,9.567
265407,0.259,0.814,10.094
265468,1.274,0.498,10.372
265527,0.46,0.843,9.155
265587,0.67,0.297,10.276
265648,0.067,0.709,10.19
265707,0.373,0.996,10.017
265767,0.584,1.092,11.09
265828,1.025,0.699,9.213
265888,0.9,0.91,9.337
265947,0.699,0.776,10.487
266007,1.092,0.603,10.64
266067,1.283,0.575,8.964
266128,0.977,0.776,9.586
266187,0.737,1.092,8.38
266247,0.795,1.188,8.255
266308,0.804,1.006,9.539
266368,0.527,1.264,9.96
266428,0.364,1.446,11.08
266488,0.402,1.81,10.151
266548,0.306,1.465,10.065
266608,0.661,1.283,10.276
266667,0.239,1.484,11.071
266728,0.613,1.312,9.941
266788,0.239,1.437,10.036
266847,0.843,1.216,10.563
266908,0.814,1.705,10.391
266968,0.977,1.446,10.104
267028,0.661,1.331,9.979
267088,0.431,1.561,9.213
267147,-0.086,1.283,9.606
267207,0.402,1.446,11.301
267268,0.412,2.442,10.123
267327,0.776,1.369,11.032
267387,0.536,2.002,11.329
267447,0.843,2.461,9.893
267508,0.843,2.72,10.592
267568,0.297,1.848,10.104
267633,0.0,1.8,9.72
267687,0.239,1.896,9.74
267747,0.709,2.078,9.529
267823,0.699,1.935,9.835
267887,0.967,1.724,10.046
267948,0.986,2.03,10.487
268007,0.661,2.308,11.396
268067,0.862,2.308,9.835
268128,0.488,2.509,9.404
268187,0.441,2.136,9.27
268247,0.508,2.088,9.213
268307,0.46,2.413,10.41
268367,0.306,1.887,10.381
268427,0.536,2.413,9.069
268487,0.278,2.002,9.615
268547,0.153,1.877,10.669
268608,0.603,1.867,9.653
268668,0.929,1.743,9.481
268728,0.441,2.174,9.596
268790,0.105,1.935,9.232
268847,1.427,1.973,8.657
268908,0.69,1.379,9.299
268967,0.891,1.044,8.983
269027,1.111,0.766,8.849
269087,1.331,0.393,8.887
269148,1.523,-0.268,8.993
269207,1.504,0.508,8.15
269267,0.852,0.536,8.906
269327,0.594,0.757,8.14
269387,0.508,0.565,8.313
269448,0.421,0.814,9.146
269508,0.613,0.488,10.429
269567,0.316,0.498,10.295
269627,0.804,0.278,10.257
269688,0.575,-0.287,11.205
269747,0.919,-0.249,10.87
269808,0.096,0.048,9.088
269867,1.264,-0.709,10.314
269928,0.622,-0.23,10.41
269987,0.316,0.01,9.979
270047,0.642,-0.211,10.985
270107,0.479,-0.048,9.922
270168,0.546,-0.048,10.343
270228,0.651,-0.22,9.318
270287,1.073,-0.278,9.251
270348,0.871,-0.172,8.897
270407,0.766,-0.249,8.217
270467,0.824,-0.096,8.246
270528,0.498,-0.326,9.184
270588,0.699,-0.239,9.749
270648,0.661,-0.364,9.74
270707,0.517,-0.527,8.389
270767,0.412,-0.354,9.28
270827,0.278,0.048,10.391
270888,0.345,-0.776,12.622
270947,0.814,-0.757,9.644
271008,0.833,-0.622,11.147
271068,0.795,-1.561,10.362
271127,1.532,-1.025,8.045
271187,1.599,-1.676,10.104
271247,0.22,-0.68,10.199
271308,0.421,-0.527,9.069
271367,0.939,-1.417,8.6
271427,0.68,-0.948,9.5
271487,0.651,-0.211,10.324
271547,0.364,-0.326,9.414
271607,0.412,-0.785,8.945
271668,0.182,-0.613,10.41
271728,0.517,-0.479,9.558
271795,0.441,-0.613,9.309
271847,0.891,-1.12,8.782
271908,1.197,0.22,8.772
271967,1.197,-0.306,9.462
271972,1.283,-0.306,9.462
272028,1.408,-0.077,10.803
272088,0.23,-0.441,9.797
272148,0.211,-0.737,10.467
272208,0.642,-0.488,10.247
272270,0.45,-0.594,10.544
272328,0.297,-0.986,9.931
272387,0.479,-0.555,10.094
272447,0.555,-0.948,9.395
272507,1.092,-0.345,9.098
272567,0.862,-1.264,9.902
272628,0.326,-0.986,10.314
272688,-0.077,-1.369,11.492
272748,0.115,-1.743,12.182
272808,0.373,-1.456,11.339
272867,0.354,-1.532,10.937
272928,0.45,-1.561,10.017
272988,0.977,-1.532,9.797
273047,0.996,-1.8,9.596
273107,0.555,-1.417,9.146
273167,0.373,-1.322,8.763
273227,0.057,-1.609,11.119
273288,0.46,-1.935,10.305
273347,-0.249,-1.599,11.559
273408,0.804,-1.657,10.056
273467,1.034,-1.705,9.443
273527,0.709,-1.255,8.753
273588,0.728,-1.322,8.792
273648,0.929,-1.456,8.993
273708,0.804,-1.369,9.883
273767,0.335,-1.417,11.061
273827,0.594,-1.628,10.534
273887,0.967,-1.638,9.203
273947,0.871,-1.638,8.705
274008,0.939,-1.331,8.14
274067,1.034,-1.446,8.064
274128,1.14,-0.335,8.236
274187,0.91,-1.465,8.562
274247,0.306,-1.302,9.481
274307,-0.077,-1.14,10.305
274367,0.019,-0.814,10.056
274428,0.996,-1.13,9.251
274487,0.766,-1.446,9.931
274548,0.651,-1.551,9.117
274608,0.804,-1.867,9.28
274668,0.613,-1.044,9.596
