Time since start in ms ,ACCELEROMETER X (m/s²),ACCELEROMETER Y (m/s²),ACCELEROMETER Z (m/s²)
14,0.622,-0.393,9.634
80,0.603,-0.373,9.835
132,0.632,-0.383,9.759
193,0.575,-0.316,9.74
253,0.661,-0.412,9.845
312,0.603,-0.345,9.634
372,0.603,-0.508,9.835
432,0.565,-0.335,9.452
498,0.68,-0.412,9.874
552,0.603,-0.259,9.328
612,0.565,-0.421,10.008
672,0.584,-0.345,9.357
738,0.632,-0.45,9.883
793,0.565,-0.345,9.385
853,0.527,-0.421,9.864
912,0.584,-0.297,9.404
972,0.603,-0.373,9.979
1032,0.651,-0.373,9.596
1092,0.565,-0.373,9.969
1152,0.575,-0.393,9.701
1218,0.517,-0.412,9.787
1272,0.661,-0.45,9.701
1332,0.642,-0.306,9.768
1392,0.642,-0.412,9.931
1452,0.555,-0.335,9.673
1512,0.603,-0.469,9.941
1577,0.575,-0.345,9.519
1632,0.67,-0.421,9.902
1692,0.613,-0.316,9.328
1757,0.546,-0.441,9.874
1818,0.603,-0.335,9.366
1872,0.584,-0.402,10.036
1933,0.546,-0.383,9.491
1992,0.527,-0.402,9.998
2052,0.622,-0.412,9.634
2113,0.594,-0.364,9.855
2173,0.613,-0.421,9.778
2232,0.575,-0.393,9.787
2292,0.67,-0.431,9.72
2352,0.661,-0.278,9.51
2412,0.555,-0.469,9.864
2473,0.546,-0.316,9.376
2533,0.67,-0.479,9.72
2593,0.603,-0.345,9.433
2652,0.508,-0.354,10.017
2712,0.594,-0.488,9.864
2772,0.632,-0.287,9.28
2833,0.555,-0.287,9.874
2893,0.622,-0.479,10.142
2953,0.68,-0.46,10.113
3013,0.795,-0.335,9.644
3072,0.718,-0.326,9.242
3133,0.527,-0.364,9.644
3192,0.469,-0.469,9.969
3252,0.517,-0.364,9.539
3313,0.632,-0.326,9.701
3372,0.718,-0.479,9.787
3432,0.584,-0.354,9.874
3492,0.565,-0.45,9.855
3552,0.527,-0.383,10.017
3612,0.737,-0.335,9.701
3672,0.699,-0.316,10.104
3732,0.402,-0.297,9.586
3793,0.575,-0.421,9.95
3852,0.555,-0.402,9.328
3912,0.728,-0.527,9.855
3973,0.441,-0.316,9.539
4032,0.68,-0.421,9.816
4092,0.642,-0.268,9.634
4152,0.67,-0.45,9.893
4213,0.536,-0.354,9.845
4272,0.555,-0.412,9.816
4333,0.642,-0.364,9.989
4392,0.498,-0.364,9.491
4452,0.67,-0.45,9.95
4513,0.613,-0.287,9.376
4573,0.603,-0.431,9.768
4633,0.603,-0.373,10.132
4693,0.508,-0.268,9.471
4752,0.718,-0.517,9.73
4816,0.622,-0.354,10.046
4872,0.498,-0.287,9.481
4932,0.747,-0.498,9.72
4993,0.651,-0.345,10.046
5052,0.488,-0.249,9.395
5113,0.699,-0.508,9.74
5172,0.661,-0.441,10.266
5232,0.517,-0.239,9.481
5293,0.546,-0.431,9.586
5352,0.632,-0.527,9.797
5413,0.68,-0.249,9.749
5472,0.441,-0.364,9.376
5532,0.699,-0.565,9.787
5593,0.642,-0.45,10.238
5652,0.565,-0.153,9.404
5712,0.441,-0.45,9.673
5777,0.661,-0.622,9.835
5833,0.709,-0.192,9.539
5893,0.527,-0.393,9.663
5952,0.766,-0.536,10.18
6012,0.709,-0.345,9.251
6072,0.795,-0.517,10.027
6132,0.929,-0.479,9.5
6192,0.996,-0.373,9.797
6253,0.958,-0.555,10.008
6319,1.207,-0.479,9.462
6392,0.871,-0.603,10.171
6453,1.178,-0.565,9.711
6517,1.101,-0.402,9.28
6578,0.91,-0.335,9.309
6633,0.517,-0.565,9.759
6693,1.12,-0.546,9.357
6754,1.331,-0.498,9.309
6822,1.197,-0.555,9.462
6892,1.513,-0.594,9.874
6952,1.657,-0.737,9.807
7013,1.216,-0.91,10.18
7073,1.532,-0.699,9.29
7138,1.618,-0.709,9.74
7192,1.226,-0.862,9.969
7253,1.12,-0.747,9.816
7312,1.034,-0.747,9.682
7373,0.996,-0.565,9.835
7438,0.967,-0.412,9.883
7493,0.929,-0.441,10.036
7553,0.709,-0.517,10.151
7612,0.575,-0.354,10.123
7672,0.517,-0.316,9.673
7732,0.383,-0.077,9.481
7792,0.077,0.0,9.251
7853,0.01,-0.115,9.902
7912,0.019,-0.23,10.046
7973,0.01,-0.057,9.242
8033,0.019,-0.182,9.912
8099,0.469,-0.517,9.922
8152,0.67,-0.249,9.395
8213,0.575,-0.412,10.046
8272,0.642,-0.479,9.586
8332,0.527,-0.469,9.989
8392,0.575,-0.68,9.826
8453,0.594,-0.412,9.395
8517,0.632,-0.488,10.065
8572,0.594,-0.268,9.251
8632,0.594,-0.431,9.855
8692,0.546,-0.268,9.203
8752,0.536,-0.479,9.95
8813,0.488,-0.364,9.347
8872,0.479,-0.508,9.855
8932,0.46,-0.373,9.797
8993,0.393,-0.431,9.692
9052,0.431,-0.603,10.238
9113,0.421,-0.354,9.261
9173,0.46,-0.584,9.778
9232,0.536,-0.412,9.73
9293,0.412,-0.498,9.586
9353,0.498,-0.651,9.989
9412,0.575,-0.373,9.366
9473,0.441,-0.565,9.634
9533,0.584,-0.46,10.104
9593,0.431,-0.297,9.404
9658,0.527,-0.575,9.864
9713,0.651,-0.46,9.941
9772,0.421,-0.565,9.74
9833,0.498,-0.68,10.104
9892,0.479,-0.431,9.462
9952,0.364,-0.517,9.826
10013,0.546,-0.431,10.285
10072,0.45,-0.393,9.558
10133,0.536,-0.68,9.778
10195,0.498,-0.546,9.893
10252,0.326,-0.546,9.519
10312,0.488,-0.651,10.142
10373,0.555,-0.354,9.606
10432,0.345,-0.527,9.692
10506,0.555,-0.766,10.017
10572,0.527,-0.661,9.701
10633,0.575,-0.479,9.874
10703,0.354,-0.412,9.424
10772,0.479,-0.364,9.539
10832,0.431,-0.613,9.816
10893,0.594,-0.594,10.094
10952,0.412,-0.412,9.424
11012,0.508,-0.584,9.883
11073,0.594,-0.402,9.73
11132,0.421,-0.575,9.673
11192,0.488,-0.661,10.132
11253,0.536,-0.555,9.433
11312,0.517,-0.709,9.893
11372,0.536,-0.479,9.73
11432,0.412,-0.517,9.596
11492,0.469,-0.747,10.084
11558,0.412,-0.536,9.491
11613,0.517,-0.814,9.787
11672,0.498,-0.766,9.998
11732,0.402,-0.622,9.29
11797,0.527,-0.843,9.922
11852,0.508,-0.584,9.711
11912,0.393,-0.68,9.711
11973,0.46,-0.776,10.104
12032,0.479,-0.699,9.357
12092,0.546,-0.622,10.036
12153,0.661,-0.9,9.807
12207,0.68,-0.833,9.251
12273,0.373,-0.977,10.295
12333,0.335,-0.967,9.922
12392,0.747,-0.881,9.653
12452,0.632,-0.393,9.05
12513,0.642,-0.584,10.343
12572,0.69,-0.603,9.941
12633,0.603,-0.412,9.232
12693,0.45,-0.498,9.759
12752,0.364,-0.833,9.95
12821,0.527,-0.632,9.213
12872,0.498,-0.565,9.558
12932,0.421,-0.709,10.496
12992,0.67,-0.67,9.625
13052,0.45,-0.508,9.222
13112,0.038,-0.508,10.094
13172,0.0,-0.345,10.218
13232,0.038,-0.239,9.586
13293,-0.393,-0.067,9.069
13352,-0.354,0.038,9.634
13413,0.0,-0.565,9.95
13483,0.603,-0.757,9.96
13552,0.393,-1.073,9.941
13612,0.46,-0.737,9.433
13673,0.441,-0.919,9.941
13732,0.354,-0.622,9.261
13792,0.23,-0.565,10.142
13853,0.134,-0.546,9.644
13912,0.096,-0.584,10.046
13973,0.029,-0.622,9.816
14032,-0.086,-0.364,9.318
14092,-0.527,-0.326,10.257
14152,-0.488,-0.105,9.644
14212,-0.613,0.0,9.433
14273,-0.297,-0.546,9.922
14332,0.01,-0.603,9.529
14392,0.0,-0.354,9.452
14452,-0.795,-0.383,10.4
14513,-1.025,0.057,9.826
14573,-0.383,-0.22,9.194
14638,0.67,-1.168,9.625
14693,0.986,-0.871,9.701
14753,0.326,-0.297,9.443
14813,0.211,-0.766,9.768
14872,0.172,-1.207,10.247
14932,-0.01,-0.795,10.113
14993,0.23,-0.488,9.663
15053,0.603,-0.757,9.385
15113,0.527,-0.824,9.28
15172,0.115,-0.565,9.749
15234,0.0,-0.508,10.056
15293,0.249,-0.871,10.142
15352,0.45,-0.958,9.874
15413,0.297,-0.68,9.558
15473,0.23,-0.622,9.366
15532,0.23,-0.881,10.027
15592,0.45,-0.843,10.017
15653,0.249,-0.441,9.232
15712,0.182,-0.68,9.874
15772,0.297,-0.977,9.845
15832,0.287,-0.68,9.261
15892,0.153,-0.68,10.104
15953,0.383,-0.737,9.883
16016,0.0,-0.469,9.558
16070,0.373,-0.91,9.969
16132,0.306,-0.747,9.433
16193,0.354,-0.747,9.998
16253,0.316,-0.804,9.989
16312,0.192,-0.613,9.519
16372,0.163,-0.824,9.864
16432,0.182,-0.862,9.95
16493,0.402,-0.776,9.663
16552,0.393,-0.68,9.673
16613,0.268,-0.68,9.366
16672,0.268,-0.68,9.558
16732,0.316,-0.651,9.376
16793,0.268,-0.747,9.855
16853,0.211,-0.91,9.941
16912,0.22,-0.709,9.395
16973,0.316,-0.852,9.778
17032,0.192,-0.728,9.309
17103,0.259,-0.824,10.046
17172,0.192,-0.69,9.941
17233,0.441,-0.824,9.701
17293,0.259,-0.651,9.586
17353,0.172,-0.881,9.912
17413,0.402,-0.833,9.701
17473,0.249,-0.622,9.347
17532,0.115,-0.613,9.567
17592,0.144,-0.833,10.132
17658,0.23,-0.9,9.998
17718,0.479,-0.776,9.778
17772,0.326,-0.661,9.539
17832,0.201,-0.67,9.491
17892,0.096,-0.69,9.969
17952,0.124,-0.852,10.333
18013,-0.077,-0.412,9.855
18072,-0.402,-0.115,9.625
18133,-0.871,-0.019,9.414
18192,-1.034,-0.163,9.577
18253,-0.958,-0.297,10.065
18313,-0.747,-0.153,9.826
18373,-0.584,0.0,9.653
18442,-0.67,0.0,9.452
18512,-0.412,-0.163,9.816
18572,-0.622,0.0,9.452
18632,-0.555,-0.182,9.567
18693,-0.527,-0.316,10.218
18752,-0.316,-0.182,9.845
18812,-0.402,0.057,9.443
18872,-0.441,0.153,9.586
18933,-0.421,-0.067,10.084
18992,-0.211,-0.067,9.653
19057,-0.22,0.192,9.318
19112,-0.153,0.029,10.008
19177,-0.172,0.0,9.998
19233,-0.048,0.077,9.826
19292,-0.124,0.201,8.782
19352,0.057,0.211,9.519
19413,0.029,-0.01,9.95
19472,0.306,-0.038,9.855
19532,0.843,-0.048,9.682
19592,0.747,-0.105,9.357
19652,0.891,-0.326,9.768
19712,0.68,-0.603,10.238
19773,0.814,-0.517,10.065
19832,0.919,-0.019,9.625
19893,0.91,-0.029,9.27
19952,0.948,-0.057,9.931
20012,0.967,-0.239,10.266
20073,1.226,-0.326,9.577
20132,1.149,-0.46,9.5
20193,1.034,-0.431,9.155
20252,0.737,-0.278,9.357
20319,0.766,-0.469,9.644
20373,0.498,-0.91,10.362
20432,0.622,-1.159,10.257
20492,0.757,-1.302,10.113
20553,0.661,-1.475,9.5
20614,0.498,-1.504,9.175
20673,0.421,-1.369,9.385
20733,0.508,-1.571,9.404
20792,0.986,-1.197,9.596
20852,0.747,-0.699,9.491
20912,0.69,-0.68,9.653
20972,0.68,-0.919,9.845
21033,0.804,-1.264,9.74
21092,0.958,-0.996,9.088
21152,0.891,-1.207,9.376
21212,0.757,-1.12,10.017
21272,0.9,-0.9,9.902
21333,0.843,-0.661,8.964
21398,1.082,-0.757,9.625
21452,1.207,-0.891,10.812
21512,1.216,-0.718,8.983
21572,1.216,-0.91,9.864
21632,1.207,-1.073,9.883
21692,1.417,-1.092,9.663
21758,1.235,-1.006,9.663
21813,1.13,-0.881,9.979
21872,1.063,-0.565,9.462
21932,0.814,-0.364,9.874
21993,0.68,-0.584,9.931
22057,0.757,-0.326,9.864
22113,0.412,-0.067,9.29
22178,0.431,-0.153,9.874
22233,0.632,-0.038,9.778
22292,0.622,0.182,9.194
22353,0.68,0.096,9.74
22412,0.785,-0.172,10.084
22477,1.197,-0.029,9.309
22532,1.149,-0.134,9.385
22592,1.379,-0.46,10.036
22653,1.618,-0.555,9.96
22712,1.513,-0.393,9.596
22773,1.408,-0.22,9.586
22832,1.513,-0.306,9.941
22892,1.618,-0.278,9.625
22953,1.829,-0.297,9.414
23018,2.107,-0.211,9.069
23073,2.136,-0.565,10.008
23133,0.651,-0.575,10.161
23192,0.172,-0.239,9.5
23253,0.211,-0.22,9.692
23318,0.153,-0.594,9.634
23373,0.45,-0.594,9.653
23432,0.843,-0.517,9.682
23492,0.69,-0.527,9.807
23552,0.776,-0.431,9.787
23613,1.168,-0.527,10.353
23673,1.12,-0.421,10.065
23732,1.159,-0.824,10.104
23793,1.465,-0.948,9.73
23853,1.417,-0.699,9.203
23912,1.417,-1.006,10.209
23972,1.015,-0.977,9.96
24032,0.498,-0.46,9.5
24092,0.632,-0.881,9.979
24152,0.766,-0.757,9.443
24212,0.517,-0.421,10.036
24273,0.843,-0.527,9.73
24333,0.862,-0.364,9.673
24392,0.527,-0.584,10.065
24452,0.622,-0.354,9.261
24514,0.584,-0.584,10.036
24572,0.613,-0.517,9.625
24632,0.699,-0.383,9.797
24692,0.67,-0.622,9.874
24752,0.833,-0.469,9.462
24808,0.661,-0.364,9.443
24872,0.536,-0.651,10.046
24933,0.699,-0.613,9.969
24992,0.747,-0.393,9.318
25053,0.69,-0.46,9.519
25113,0.555,-0.651,10.218
25173,0.737,-0.661,9.931
25233,0.747,-0.431,9.261
25293,0.45,-0.201,9.51
25353,0.364,-0.364,10.132
25412,0.651,-0.498,9.931
25472,0.747,-0.354,9.337
25533,0.737,-0.268,9.347
25592,0.709,-0.555,10.104
25653,0.814,-0.575,9.95
25718,0.91,-0.316,9.395
25772,0.632,-0.268,9.577
25833,0.546,-0.709,10.056
25897,0.757,-0.814,9.835
25952,0.651,-0.402,9.337
26013,0.536,-0.651,10.161
26073,0.747,-0.67,9.864
26132,0.642,-0.345,9.385
26192,0.498,-0.594,10.171
26263,0.642,-0.68,9.673
26333,0.488,-0.718,9.969
26392,0.45,-0.383,9.395
26452,0.287,-0.555,10.171
26512,0.354,-0.402,9.5
26573,0.278,-0.211,9.893
26632,0.086,-0.431,9.874
26692,-0.029,-0.172,9.663
26753,-0.134,-0.316,9.768
26811,-0.259,-0.115,9.51
26872,-0.239,-0.192,9.74
26932,-0.096,-0.144,9.462
26992,0.211,-0.536,9.73
27052,0.402,-0.469,9.711
27112,0.402,-0.555,9.816
27173,0.441,-0.527,9.95
27232,0.326,-0.67,9.692
27292,0.364,-0.613,9.931
27353,0.211,-0.555,9.606
27413,0.393,-0.69,10.065
27472,0.297,-0.46,9.404
27532,0.441,-0.67,9.893
27592,0.297,-0.479,9.586
27652,0.259,-0.613,9.787
27712,0.393,-0.737,10.18
27772,0.297,-0.498,9.242
27838,0.488,-0.699,9.864
27912,0.479,-0.757,9.998
27973,0.508,-0.613,9.337
28032,0.45,-0.795,10.113
28092,0.622,-0.795,9.433
28152,0.565,-0.642,9.519
28212,0.488,-0.891,10.161
28272,0.68,-0.843,9.586
28333,0.498,-0.575,9.414
28393,0.402,-0.814,10.209
28453,0.69,-0.871,9.787
28513,0.594,-0.508,9.261
28572,0.575,-0.699,10.266
28633,0.594,-0.881,9.845
28693,0.651,-0.642,9.309
28753,0.488,-0.642,9.855
28810,0.508,-0.843,10.113
28873,0.737,-0.709,9.337
28933,0.651,-0.584,9.615
28993,0.527,-0.871,10.075
29052,0.709,-0.766,9.433
29113,0.575,-0.527,9.73
29172,0.345,-0.9,10.056
29233,0.584,-0.766,9.261
29293,0.603,-0.613,9.558
29352,0.479,-0.766,10.065
29412,0.843,-0.622,9.414
29473,0.728,-0.546,9.299
29533,0.517,-0.757,10.218
29592,0.642,-0.881,9.989
29653,0.804,-0.699,9.242
29712,0.622,-0.67,9.376
29773,0.594,-0.776,10.104
29832,0.642,-0.709,10.343
29892,0.642,-0.718,10.075
29952,0.766,-0.785,9.558
30012,0.795,-0.661,9.184
30072,0.785,-0.747,9.012
30132,0.728,-0.766,9.558
30192,0.517,-0.824,10.228
30252,0.613,-0.68,9.673
30313,0.69,-0.469,9.27
30373,0.383,-0.46,9.989
30433,0.316,-0.498,10.142
30492,0.287,-0.211,9.357
30552,0.0,-0.153,10.113
30612,-0.029,-0.335,9.634
30672,-0.326,-0.067,9.634
30732,-0.345,-0.278,9.874
30798,-0.029,-0.124,9.108
30852,0.01,-0.517,9.893
30913,0.029,-0.479,9.251
30977,0.105,-0.575,10.199
31032,0.105,-0.651,9.644
31092,0.144,-0.46,9.874
31152,0.144,-0.661,9.95
31217,0.086,-0.488,9.098
31277,0.019,-0.498,9.922
31332,0.115,-0.345,9.433
31392,0.038,-0.383,9.663
31452,0.01,-0.642,9.855
31512,0.0,-0.431,9.28
31573,0.0,-0.508,10.544
31632,0.124,-0.728,9.73
31692,0.019,-0.373,9.452
31772,-0.105,-0.642,10.151
31832,-0.153,-0.393,10.046
31893,-0.077,-0.603,9.787
31955,-0.038,-0.46,9.251
32013,-0.038,-0.766,10.084
32072,0.048,-0.565,9.366
32133,0.067,-0.555,10.084
32193,0.23,-0.871,9.72
32253,0.297,-0.69,9.021
32312,0.192,-0.622,10.218
32372,0.335,-0.661,9.711
32433,0.259,-0.412,9.586
32492,0.0,-0.776,9.893
32553,0.019,-0.632,9.261
32612,-0.249,-0.326,10.017
32672,-0.651,-0.393,9.835
32743,-0.613,-0.096,9.222
32818,-0.402,-0.287,9.539
32872,-0.211,-0.297,9.634
32932,-0.182,-0.613,9.969
32992,0.01,-0.508,9.366
33053,0.0,-0.488,9.989
33112,-0.077,-0.843,9.969
33174,-0.259,-0.555,9.395
33232,-0.412,-0.383,9.998
33293,-0.402,-0.594,9.893
33353,-0.335,-0.364,9.012
33412,-0.431,-0.364,9.826
33472,-0.268,-0.661,9.74
33533,-0.086,-0.488,9.184
33592,-0.115,-0.479,9.989
33653,-0.192,-0.709,10.075
33713,0.0,-0.728,9.653
33777,-0.105,-0.508,9.146
33834,0.096,-0.747,9.998
33892,0.163,-0.862,10.151
33952,0.259,-0.737,10.027
34012,0.268,-0.737,9.51
34072,0.038,-0.546,9.251
34143,-0.115,-0.421,9.242
34192,-0.421,-0.326,9.95
34252,-0.517,-0.192,10.104
34318,-0.383,-0.019,9.634
34373,-0.536,0.115,9.251
34432,-0.603,0.0,9.759
34493,-0.249,-0.096,9.433
34558,-0.192,-0.172,10.113
34613,-0.086,-0.421,9.701
34673,-0.402,-0.153,9.29
34732,-0.68,-0.373,10.104
34792,-0.498,-0.364,9.644
34852,-0.632,-0.239,9.596
34917,-0.737,-0.508,10.017
34972,-0.565,-0.345,9.74
35033,-0.843,-0.239,9.29
35093,-0.939,-0.45,10.285
35152,-0.939,-0.536,9.816
35212,-0.843,-0.182,9.27
35272,-1.034,-0.345,9.242
35333,-1.044,-0.584,10.113
35392,-0.9,-0.632,9.893
35453,-0.852,-0.45,9.433
35512,-1.034,-0.46,9.357
35572,-1.159,-0.546,10.113
35632,-1.015,-0.517,9.797
35692,-1.379,-0.306,9.51
35752,-0.651,-0.441,9.376
35835,-0.019,-0.718,9.883
35893,0.134,-0.498,9.261
35953,-0.412,-0.508,9.749
36018,-0.757,-0.632,9.874
36078,-0.402,-0.737,9.548
36132,-0.067,-0.642,9.922
36190,-0.278,-0.441,9.73
36253,-0.182,-0.584,9.079
36313,-0.737,-0.479,10.075
36373,-0.297,-0.527,8.782
36432,-0.776,-0.737,10.228
36493,-1.149,-0.642,9.749
36553,-1.504,-0.747,9.826
36612,-1.504,-0.737,9.682
36672,-1.111,-0.747,9.596
36732,-0.613,-0.555,9.012
36792,-0.632,-0.613,9.471
36852,-1.025,-0.785,10.123
36912,-0.843,-0.9,9.95
36973,-0.393,-0.747,9.51
37038,-0.757,-0.68,9.194
37092,-0.881,-0.939,9.969
37152,-0.69,-1.006,10.075
37212,-0.469,-0.737,9.5
37272,-0.594,-0.948,9.548
37333,-0.814,-0.929,10.19
37392,-0.862,-0.939,9.931
37452,-0.9,-0.9,9.768
37512,-0.91,-0.939,9.366
37577,-0.967,-1.063,9.251
37632,-1.044,-1.111,9.414
37692,-1.073,-1.159,9.663
37752,-0.948,-1.226,9.902
37818,-0.986,-1.283,9.826
37892,-0.948,-1.073,9.72
37952,-1.13,-1.235,9.835
38012,-1.216,-0.986,9.586
38072,-1.312,-0.948,9.519
38133,-0.996,-1.207,9.701
38193,-1.101,-1.331,9.787
38257,-1.053,-1.14,9.596
38312,-0.986,-1.197,9.931
38372,-0.929,-1.034,9.586
38433,-0.776,-0.948,9.673
38492,-0.929,-1.092,9.673
38553,-0.709,-1.006,9.615
38612,-0.67,-1.207,10.094
38672,-0.527,-1.188,9.653
38733,-0.431,-1.255,9.529
38793,-0.431,-1.216,9.318
38857,-0.335,-1.053,9.519
38912,-0.316,-0.948,9.366
38973,-0.402,-0.939,9.816
39033,-0.316,-0.776,9.155
39092,-0.412,-0.785,9.433
39152,-0.546,-0.785,9.108
39213,-0.402,-0.852,9.462
39277,-0.354,-0.948,9.596
39333,-0.402,-1.092,10.104
39392,-0.431,-0.929,10.238
39453,-0.412,-0.852,10.18
39513,-0.421,-0.785,10.199
39572,-0.326,-0.642,10.094
39633,0.057,-0.852,9.577
39703,-0.192,-0.814,9.242
39763,0.0,-0.699,9.443
39833,-0.038,-0.441,9.318
39892,-0.086,-0.268,9.108
39952,-0.316,-0.412,10.017
40013,0.0,-0.393,9.855
40073,0.0,-0.326,9.883
40133,0.0,-0.536,9.96
40192,0.105,-0.287,9.481
40254,-0.067,-0.354,9.51
40312,0.412,0.278,9.069
40373,0.91,0.278,10.056
40432,-0.441,1.006,10.669
40492,-0.335,0.268,9.491
40553,-0.144,-0.871,9.653
40612,0.105,-1.456,9.213
40672,0.096,-1.647,9.021
40742,-0.306,-1.791,9.625
40812,-0.22,-0.67,9.165
40873,-0.603,0.086,9.462
40932,-0.986,0.555,10.132
40992,-1.073,0.498,10.343
41052,-0.661,-0.019,10.151
41113,-0.373,-0.594,9.787
41172,0.0,-1.082,9.471
41233,-0.038,-1.073,9.424
41292,-0.268,-0.958,9.96
41358,-0.048,-0.871,9.778
41413,-0.019,-0.287,9.385
41476,-0.613,0.077,9.577
41533,-0.804,0.124,10.056
41593,-0.852,-0.22,10.094
41652,-1.331,-0.287,9.768
41712,-1.092,-0.383,9.797
41773,-1.389,-0.546,9.969
41825,-1.427,-0.747,9.443
41892,-2.203,-0.029,10.238
41953,-1.618,-0.469,10.027
42013,-1.561,-1.149,9.404
42072,-1.647,-1.724,9.031
42133,-1.226,-1.944,9.452
42192,-1.274,-1.686,9.701
42257,-1.255,-2.155,9.51
42312,-1.657,-2.624,8.878
42372,-1.379,-0.594,9.663
42433,-1.58,0.527,9.462
42497,-1.647,1.523,10.266
42553,-1.35,1.245,10.324
42612,-1.101,0.038,10.151
42674,-0.862,-0.986,9.184
42733,-0.929,-1.12,9.337
42819,-1.197,-1.235,9.242
42873,-0.728,-1.015,9.586
42933,-0.757,-0.699,10.017
42993,-0.948,-0.441,10.094
43053,-0.642,-0.862,8.638
43113,-0.709,0.086,9.874
43172,-0.594,0.163,9.443
43232,-0.747,1.168,8.332
43293,-0.412,0.393,10.429
43352,-0.335,0.115,9.366
43423,-0.268,-0.699,10.64
43493,-0.996,-0.345,9.261
43553,-1.618,-0.278,9.797
43612,-1.992,0.019,9.864
43673,-2.557,0.412,8.906
43743,-2.883,-0.239,9.452
43818,-2.816,0.977,9.031
43873,-1.283,0.498,9.414
43932,-1.302,0.699,9.787
43993,-1.006,0.996,11.55
44053,-0.517,0.259,10.764
44119,-0.555,-0.172,11.674
44173,-1.705,-0.594,8.792
44232,-1.437,-0.536,8.619
44292,-1.302,-1.063,8.619
44353,-0.182,0.038,9.893
44412,-1.427,0.45,9.74
44477,-0.527,1.398,8.418
44532,-0.067,1.609,10.151
44593,-1.188,0.603,10.333
44652,0.393,-0.153,10.161
44712,0.345,-0.354,8.744
44778,0.172,-1.015,9.548
44832,0.364,-0.316,8.715
44892,1.168,-1.178,5.957
44953,0.048,0.172,8.562
45013,0.393,0.584,9.404
45072,1.245,-0.134,10.831
45132,1.034,0.804,11.224
45192,0.804,0.728,9.998
45252,0.881,-0.172,8.724
45313,0.728,-0.536,9.883
45373,0.565,-0.182,8.945
45432,1.618,-0.498,10.142
45500,0.757,-0.22,10.314
45572,1.073,0.201,9.95
45633,1.006,0.144,9.366
45692,0.345,0.393,9.941
45752,0.019,0.22,10.448
45818,-0.057,0.402,10.046
45872,0.986,-0.278,8.648
45932,0.67,0.124,8.945
45992,0.852,0.029,8.993
46052,0.077,-0.393,9.577
46117,0.69,-0.517,9.165
46173,0.421,0.0,9.452
46227,0.441,0.785,8.878
46292,0.498,0.287,10.831
46352,1.686,-0.651,11.176
46413,1.053,-0.709,11.253
46472,0.996,-0.115,9.941
46532,0.508,-0.105,8.811
46592,0.651,-0.086,9.443
46652,0.661,-0.278,9.969
46698,0.498,0.019,10.199
46773,0.326,0.469,8.906
46833,0.153,0.594,8.849
46892,0.0,0.306,9.29
46952,0.048,0.163,9.989
47012,0.22,0.172,9.893
47072,0.22,-0.01,9.606
47132,0.01,-0.335,10.199
47200,0.153,-0.412,9.366
47253,0.038,-0.048,9.979
47313,0.01,0.01,9.404
47373,0.01,0.383,10.046
47433,0.029,0.335,9.318
47492,0.364,0.0,10.218
47553,-0.057,0.086,9.481
47613,-0.421,-0.575,9.73
47672,-0.575,-0.441,9.452
47732,-0.565,-0.297,9.299
47792,-0.182,-0.22,9.902
47852,-0.086,0.096,9.443
47912,-0.182,-0.115,9.768
47972,-0.096,-0.249,10.295
48037,-0.077,-0.115,9.242
48093,-0.038,-0.46,9.96
48152,-0.105,-0.192,10.132
48213,-0.163,0.057,9.404
48273,-0.086,-0.048,9.768
48337,-0.019,0.239,9.088
48392,-0.019,-0.096,9.941
48452,0.077,-0.124,9.922
48512,-0.144,-0.153,9.634
48573,0.0,-0.354,9.902
48633,0.038,-0.172,9.376
48692,-0.086,-0.431,9.644
48752,-0.69,-0.105,8.456
48827,-0.153,-1.848,9.251
48872,1.12,-0.795,10.621
48932,1.379,-0.048,11.521
48992,1.092,0.134,10.994
49052,0.508,0.105,10.295
49113,0.316,-0.067,9.203
49173,-0.124,-0.498,8.973
49233,-0.201,-0.642,9.213
49292,-0.144,-0.622,9.711
49353,-0.412,-0.517,9.586
49412,-0.393,-0.632,9.357
49472,-0.479,-0.622,9.816
49532,-0.871,-0.239,9.912
49593,-0.747,-0.862,9.73
49653,-1.216,-0.68,9.912
49713,-0.996,-1.207,9.213
49782,-1.025,-1.408,9.749
49852,-0.785,-1.58,9.261
49912,-0.508,-1.034,9.606
49972,-0.766,-1.101,10.266
50032,-0.373,-0.948,9.548
50092,-0.383,-0.632,9.51
50152,-0.383,-0.345,9.529
50212,-1.331,-1.848,9.941
50283,-0.67,-2.03,10.554
50353,-0.919,-1.906,10.314
50413,-0.096,-1.475,9.615
50473,-0.086,-1.35,10.238
50532,0.153,-2.136,9.462
50593,-0.709,-0.613,10.822
50653,-1.551,-0.354,10.439
50712,-1.982,-0.354,9.5
50772,-2.212,-0.661,9.912
50832,-2.49,-0.967,9.893
50892,-2.26,-1.178,9.318
50952,-1.8,-1.111,9.529
51013,-1.657,-0.996,9.969
51072,-1.408,-0.728,10.439
51137,-1.532,-0.632,10.391
51192,-1.963,-0.153,10.199
51253,-2.327,-0.153,10.276
51312,-2.777,-0.124,9.146
51378,-2.078,-0.239,9.309
51433,-2.442,-0.402,9.673
51493,-2.174,0.287,9.807
51552,-2.5,0.067,8.916
51612,-2.251,0.345,10.056
51672,-2.145,0.622,10.056
51733,-2.308,0.393,10.592
51793,-2.049,0.354,10.381
51852,-2.088,-0.096,10.123
51913,-1.733,-0.134,10.142
51972,-1.264,0.192,10.276
52032,-2.116,-0.278,9.673
52092,-1.322,-0.211,9.127
52153,-1.264,-0.335,9.663
52213,-1.322,-0.057,9.74
52272,-1.341,-0.259,9.96
52333,-1.858,-0.163,9.328
52392,-1.657,-0.335,9.299
52452,-1.705,-0.144,9.328
52512,-1.197,0.211,9.941
52573,-1.676,0.144,10.266
52633,-2.078,0.555,9.558
52692,-1.695,0.632,8.724
52753,-1.341,0.709,9.357
52813,-1.302,0.316,10.937
52873,-1.484,-0.086,10.678
52932,-1.408,-0.22,9.414
52992,-1.053,0.201,9.309
53052,-1.398,-0.144,10.659
53117,-1.666,-0.45,10.171
53173,-0.939,-0.163,9.912
53232,-0.718,-0.345,10.151
53298,-1.551,0.048,10.008
53352,-0.967,0.038,9.28
53413,-1.609,-0.211,9.979
53472,-1.207,-0.057,9.481
53532,-1.149,-0.268,10.142
53592,-0.709,-0.555,9.567
53652,-1.245,-0.364,9.711
53713,-1.302,-0.527,9.682
53773,-0.661,-0.632,9.759
53833,-1.111,-0.948,10.276
53893,-0.977,-0.575,10.228
53952,-0.699,-1.015,10.506
54017,-0.967,-0.843,10.707
54072,-0.728,-0.939,9.06
54133,-1.015,-0.661,9.692
54197,-1.168,-1.073,10.726
54252,-0.364,-0.651,10.496
54312,-0.46,-0.757,9.998
54373,-1.255,-1.168,9.73
54433,-1.111,-0.69,10.027
54492,-1.398,-0.613,9.471
54553,-0.948,-0.393,8.887
54618,-1.015,-0.45,9.787
54672,-0.814,-0.814,10.477
54732,-0.268,-0.565,10.783
54792,-0.737,-0.182,10.209
54852,-0.268,0.077,10.238
54917,-0.622,-0.038,10.228
54973,-0.584,-0.259,9.893
55032,-1.12,-0.029,9.989
55092,-1.082,-0.086,9.816
55152,-1.14,0.077,9.797
55215,-0.69,0.096,9.72
55273,-0.68,0.259,9.969
55333,-0.259,0.067,9.998
55393,-0.68,0.038,9.893
55453,-1.082,-0.22,9.471
55512,-0.843,0.029,8.897
55573,-0.584,0.067,9.136
55632,-0.594,-0.134,9.558
55693,-0.584,1.006,8.686
55758,-0.69,0.469,9.06
55810,0.0,-0.402,11.636
55880,-0.029,0.067,10.918
55936,0.029,-0.019,10.764
55993,0.958,-0.393,10.343
56053,-0.919,-0.048,10.113
56113,-0.278,-0.057,9.644
56172,-0.402,0.0,8.073
56232,-0.153,0.441,8.887
56292,-0.048,0.105,9.357
56353,0.517,0.23,9.606
56413,0.115,0.01,9.931
56477,0.527,-0.278,11.186
56533,0.431,0.201,9.778
56592,-0.479,-0.469,9.548
56653,-0.402,-0.412,9.558
56713,0.077,-0.067,8.849
56773,-0.239,0.354,9.29
56833,-0.105,-0.038,9.768
56892,0.192,-0.259,9.222
56953,0.594,-0.46,9.567
57012,0.038,-0.201,11.109
57073,0.613,-0.287,9.347
57134,-0.048,-0.105,9.998
57192,0.517,-0.699,8.964
57252,0.249,-0.488,10.295
57312,-0.019,-0.709,9.337
57373,0.22,-0.862,11.416
57432,0.479,-0.479,8.428
57493,0.029,-0.795,10.439
57552,0.412,-0.287,8.859
57612,0.268,-0.086,8.763
57672,0.919,0.038,9.395
57732,0.354,-0.393,9.73
57792,0.105,-0.316,10.209
57857,0.297,-0.354,9.222
57933,0.249,-0.364,9.883
57992,0.536,-0.326,10.496
58053,0.508,-0.211,9.222
58113,0.23,-0.441,10.439
58172,0.373,-0.144,9.787
58233,0.316,-0.086,9.337
58292,0.23,-0.172,10.353
58358,0.46,0.077,9.012
58412,0.45,-0.412,10.056
58473,0.144,-0.115,10.113
58532,0.536,0.048,8.054
58618,0.871,0.048,9.194
58673,0.182,0.249,10.343
58732,0.383,0.364,9.931
58792,0.785,-0.115,10.046
58853,0.383,1.101,10.19
58913,0.287,0.91,9.558
58982,0.584,0.843,9.079
59052,0.737,1.36,9.634
59112,-0.048,0.939,10.199
59177,0.814,0.958,10.027
59232,0.22,1.379,10.515
59292,0.105,1.906,9.902
59352,0.268,1.705,9.347
59423,0.22,1.599,9.309
59492,0.297,1.695,9.979
59552,0.747,1.686,10.094
59613,0.737,1.59,9.222
59672,0.67,1.379,10.353
59732,0.077,1.322,9.701
59793,0.517,1.791,8.657
59853,0.134,1.331,9.433
59912,0.45,2.184,9.088
59973,0.498,2.088,8.389
60033,0.488,1.753,9.424
60093,0.575,2.021,9.74
60153,0.345,1.571,8.428
60217,0.661,1.389,9.424
60274,0.239,1.207,10.41
60348,0.69,1.389,9.136
60412,0.632,1.197,8.897
60472,0.584,1.264,10.075
60532,0.651,0.699,10.218
60593,0.824,1.408,9.653
60653,0.575,1.053,10.094
60712,0.22,1.101,9.376
60772,0.46,0.977,9.385
60837,0.441,1.283,9.452
60892,-0.057,0.804,9.222
60952,0.536,0.833,7.623
61012,0.239,1.111,9.424
61072,0.536,1.235,9.337
61137,0.737,1.13,8.993
61193,0.498,1.369,9.95
61257,0.517,1.475,9.969
61312,0.46,1.753,8.734
61372,0.316,0.91,9.519
61433,0.144,0.603,9.816
61494,0.642,2.164,7.594
61552,0.22,0.986,9.443
61613,0.23,1.235,9.787
61672,0.871,1.551,7.93
61737,-0.192,-0.326,9.395
61791,1.274,1.168,9.979
61853,0.737,0.345,10.247
61912,0.029,1.111,10.64
61973,0.124,1.063,7.987
62033,-0.029,1.312,9.481
62093,0.479,1.446,9.902
62152,1.063,1.034,8.389
62212,-0.383,0.46,10.946
62273,0.45,1.044,8.849
62333,0.431,0.747,10.515
62393,0.479,0.632,9.213
62453,0.584,0.833,9.079
62518,-0.153,0.651,10.065
62573,0.306,0.977,7.489
62632,0.431,0.01,9.759
62692,0.431,0.613,8.849
62753,0.067,0.354,10.946
62813,0.603,0.833,8.265
62873,0.996,0.326,8.839
62933,0.134,0.23,10.975
62993,0.067,0.0,9.079
63053,0.622,0.488,10.381
63112,0.393,0.479,7.977
63173,0.316,0.345,10.295
63232,0.488,0.939,7.738
63292,0.287,0.383,10.113
63353,0.871,0.594,8.83
63417,0.115,0.201,10.841
63473,0.939,0.364,7.642
63532,0.939,0.249,11.885
63537,0.259,0.249,11.885
63592,0.22,0.546,8.61
63652,0.603,0.22,11.837
63712,0.757,0.172,8.744
63777,0.211,0.393,10.592
63833,0.575,0.268,8.361
63893,0.776,0.077,9.73
63952,0.441,0.268,8.6
64012,0.527,-0.038,10.669
64072,0.891,0.057,10.4
64132,0.967,0.124,10.783
64203,0.115,-0.067,11.119
64272,0.306,0.306,8.543
64333,0.393,0.182,11.214
64393,0.699,-0.144,9.701
64457,0.699,0.421,10.439
64513,0.306,0.22,9.864
64572,0.594,0.115,8.993
64633,0.632,0.22,11.004
64693,0.431,0.393,9.194
64752,0.431,0.057,9.74
64809,0.249,0.0,10.621
64874,1.063,0.019,9.797
64933,0.536,-0.048,11.454
64992,0.814,0.211,9.96
65052,0.68,-0.096,10.803
65112,0.239,0.508,11.272
65172,0.661,-0.01,9.146
65233,0.498,0.077,9.213
65292,0.575,-0.441,10.314
65353,0.565,-0.383,9.653
65417,0.977,-0.316,9.318
65473,0.23,-0.479,10.084
65533,-0.096,-0.699,9.74
65597,0.661,-0.01,9.673
65653,0.192,0.153,11.195
65712,0.699,-0.124,10.036
65773,0.565,0.192,9.606
65832,0.268,0.316,10.113
65892,0.029,0.163,10.343
65952,1.207,0.172,9.586
66012,0.393,0.622,10.764
66073,0.45,-0.105,10.582
66133,0.354,-0.172,9.376
66193,0.412,0.019,9.989
66252,0.45,0.287,11.454
66312,0.891,0.077,10.065
66372,1.034,0.814,10.554
66433,1.13,0.393,11.914
66492,0.316,0.584,9.175
66552,0.412,1.063,9.673
66613,0.335,-0.268,11.09
66672,1.044,0.278,9.146
66733,0.776,0.824,6.972
66792,-0.728,-0.192,9.194
66853,0.22,0.46,10.937
66913,0.172,2.203,9.079
66973,0.632,0.412,9.5
67032,0.0,-0.067,10.726
67092,-0.182,0.996,9.491
67153,0.354,0.019,9.998
67212,0.919,-0.498,10.64
67272,1.178,-0.239,11.128
67332,1.293,-0.172,10.266
67392,1.638,-0.939,12.048
67452,-0.172,-0.508,10.084
67513,0.364,-0.642,9.232
67572,0.239,-0.881,8.926
67632,0.46,-1.044,10.764
67693,0.105,-0.757,10.065
67753,0.757,-1.312,9.682
67816,0.268,-0.316,9.404
67872,0.23,-1.599,9.893
67932,0.469,-1.293,8.332
67993,0.086,-1.188,9.519
68052,0.651,-2.327,11.358
68112,1.025,-1.551,9.931
68172,0.68,-1.36,9.96
68233,0.479,-2.528,11.655
68293,0.977,-2.863,10.477
68352,0.824,-1.906,9.606
68413,0.603,-2.231,10.391
68472,0.795,-2.998,9.787
68537,0.287,-2.337,8.782
68592,0.421,-2.346,9.692
68652,0.46,-1.982,10.343
68712,0.22,-3.189,9.845
68772,0.373,-2.356,10.659
68832,0.326,-1.753,10.065
68893,0.259,-2.327,10.487
68953,0.373,-1.887,10.487
69012,0.373,-2.145,10.094
69072,-0.048,-2.145,9.213
69133,-0.038,-1.188,9.72
69192,0.048,-1.609,9.28
69252,0.23,-2.078,8.523
69312,0.134,-1.312,10.592
69373,0.373,-1.168,11.492
69432,0.182,-1.561,10.87
69507,0.306,-1.571,9.768
69573,-0.45,-1.915,10.104
69633,0.01,-1.81,10.467
69692,0.249,-1.341,10.391
69752,-0.134,-1.935,10.161
69817,-0.134,-1.293,9.893
69820,-0.776,-1.293,9.893
69892,0.0,-1.724,9.519
69958,0.383,-2.107,9.931
70012,-0.077,-0.958,8.6
70073,-0.105,-1.475,10.774
70132,-0.211,-2.069,13.091
70192,0.785,-1.551,10.573
70263,-0.096,-0.737,11.76
70332,0.354,-1.551,11.875
70393,-0.192,-0.958,10.429
70453,-0.316,-1.015,10.659
70512,-0.077,-1.791,11.1
70572,-0.153,-1.657,8.792
70633,0.019,-0.986,8.916
70693,0.268,-1.034,10.238
70770,0.259,-0.871,8.849
70815,-0.306,-0.718,8.734
70873,-0.182,-0.498,9.222
70932,0.144,-0.584,10.602
70993,0.431,-0.546,8.897
71053,-0.077,-0.718,9.529
71112,-0.134,-0.661,9.663
71172,0.0,-0.603,11.224
71232,0.144,-0.326,10.688
71292,0.297,-0.613,10.036
71352,0.163,-0.728,9.807
71412,0.105,-0.986,9.452
71472,-0.086,-0.613,9.902
71533,0.029,-0.699,10.343
71592,-0.153,-0.594,11.368
71652,-0.029,-1.044,11.55
71717,0.048,-0.421,10.467
71773,-0.01,-0.479,9.893
71832,0.479,-0.766,8.226
71893,0.268,-0.373,8.916
71952,-0.01,-0.536,9.807
72012,-0.077,-0.421,7.748
72072,-0.287,-0.814,7.939
72132,0.488,-1.293,8.859
72193,0.565,-0.919,9.146
72253,0.0,-1.465,10.755
72312,0.23,-1.513,9.347
72373,0.824,-1.36,9.787
72432,-0.287,-1.829,10.075
72502,-0.096,-1.389,11.032
72551,-0.192,-1.235,10.362
72612,-0.029,-1.082,10.4
72672,-0.383,-0.958,11.425
72733,0.421,-0.843,10.314
72792,0.498,-0.661,10.812
72852,0.527,-0.69,10.448
72912,0.096,-0.67,9.146
72972,0.287,-0.919,9.117
73033,-0.096,-0.986,9.826
73092,-0.23,-1.456,9.117
73152,-0.192,-1.274,10.889
73212,-0.048,-1.437,10.841
73283,0.057,-1.302,10.247
73353,0.01,-1.389,9.653
73413,0.105,-1.302,9.519
73473,-0.23,-1.628,9.893
73533,-0.096,-1.982,9.826
73597,-0.105,-2.375,10.065
73652,-0.354,-2.308,8.399
73713,-0.603,-2.04,7.518
73772,-0.345,-1.781,8.552
73833,0.029,-1.954,9.175
73893,0.546,-2.346,9.596
73952,0.622,-2.222,10.477
74012,0.364,-2.547,9.471
74073,0.0,-2.796,9.519
74133,-0.249,-2.346,9.127
74193,-0.46,-2.356,9.864
74252,-0.565,-2.5,10.669
74313,0.211,-2.155,10.688
74372,0.297,-2.442,10.544
74433,0.019,-2.375,8.274
74492,0.278,-2.49,10.659
74553,0.23,-2.375,10.324
74617,-0.019,-2.385,8.696
74692,-0.469,-2.308,9.146
74757,0.22,-2.116,9.031
74809,0.22,-2.155,9.299
74812,0.479,-2.155,9.299
74873,-0.038,-1.877,8.973
74932,-0.728,-1.896,9.96
74993,0.048,-2.078,10.783
75052,0.402,-1.609,10.831
75112,-0.201,-1.887,9.902
75177,-0.575,-1.743,10.084
75235,0.057,-1.465,9.443
75292,0.249,-1.389,9.232
75352,-0.479,-1.599,10.18
75413,0.259,-1.293,10.716
75472,0.134,-1.283,9.606
75533,-0.048,-1.494,10.123
75592,-0.249,-1.111,8.935
75653,-0.306,-1.532,8.744
75712,-0.306,-1.197,8.61
75717,-0.45,-1.197,8.61
75778,0.0,-1.188,8.657
75833,-0.278,-1.293,9.682
75892,0.0,-1.341,10.075
75952,0.287,-1.025,9.558
76012,-0.737,-0.948,9.72
76073,0.795,-0.393,11.281
76132,-0.201,-0.642,9.012
76192,0.192,-0.785,10.764
76253,0.661,-0.278,9.213
76312,0.661,-0.757,8.677
76318,-0.958,-0.757,8.677
76373,0.469,-0.46,8.724
76433,1.015,-0.019,9.998
76492,-0.603,-0.057,9.845
76552,0.46,0.038,8.954
76613,1.312,0.412,8.294
76673,-0.441,0.096,9.184
76733,-0.048,0.0,10.477
76816,0.0,-0.326,9.902
76872,-0.622,0.0,9.261
76932,-0.124,0.172,9.902
76992,0.153,-0.22,9.261
77053,-0.192,-0.306,9.606
77113,-0.316,-0.105,8.724
77172,0.259,-0.029,9.759
77232,0.067,-0.134,9.577
77292,-0.517,-0.01,8.131
77353,0.077,0.163,9.433
77423,0.239,0.211,9.309
77492,0.144,-0.278,9.366
77553,-0.306,0.105,9.529
77614,0.096,0.268,9.826
77672,0.239,-0.057,9.558
77733,-0.029,0.0,10.525
77792,0.421,-0.22,10.276
77858,0.057,-0.259,9.711
77913,0.402,0.019,9.548
77972,0.431,-0.268,10.276
78033,0.077,-0.354,9.673
78093,-0.182,-0.019,8.159
78152,0.105,-0.259,9.539
78212,0.029,-0.096,9.481
78272,-0.278,0.038,8.399
78333,0.412,-0.067,9.079
78392,0.067,-0.144,9.883
78459,0.182,-0.029,9.5
78512,0.077,-0.038,9.807
78572,0.22,-0.048,9.596
78632,0.469,-0.029,10.199
78693,0.393,-0.172,10.831
78753,0.172,0.01,10.391
78822,0.335,-0.23,9.117
78872,0.077,0.01,9.021
78932,0.613,0.038,9.558
78993,0.153,0.182,9.347
79052,-0.077,-0.096,9.96
79112,0.565,0.019,9.347
79179,0.642,0.029,8.389
79232,0.546,0.077,10.458
79297,0.067,-0.124,9.855
79353,0.757,0.124,8.236
79413,0.46,0.0,10.276
79473,0.192,0.0,10.094
79533,0.651,0.565,8.6
79593,0.632,0.096,10.602
79652,0.373,0.46,8.945
79712,0.441,0.661,9.51
79773,0.565,0.517,10.669
79833,0.153,0.661,8.677
79893,0.335,0.536,10.065
79952,0.508,0.067,9.692
80012,0.421,0.364,9.424
80072,0.038,0.287,10.841
80132,0.757,0.393,8.303
80192,0.172,0.488,9.682
80253,0.575,0.431,9.088
80318,0.383,0.737,8.006
80373,-0.057,0.259,10.353
80433,0.594,0.22,9.012
80493,0.306,0.268,9.749
80553,0.45,0.211,9.443
80612,0.718,0.469,8.993
80672,0.067,0.287,9.625
80738,0.383,0.546,8.6
80793,0.508,0.546,9.337
80852,0.584,0.546,8.945
80913,0.642,0.785,8.562
80972,0.326,1.015,10.381
81033,0.661,1.417,8.6
81093,0.249,1.188,10.649
81153,0.699,0.939,8.6
81212,0.536,1.293,9.376
81287,0.105,1.159,9.5
81331,0.575,0.986,8.341
81393,0.651,1.896,8.361
81452,0.306,1.618,10.017
81513,0.163,1.58,8.61
81573,-0.01,1.858,8.82
81633,0.737,1.561,9.357
81693,0.46,1.8,9.902
81748,0.172,1.705,10.247
81820,0.488,1.015,9.902
81893,0.383,1.705,8.801
81952,0.182,1.877,9.797
82013,0.373,1.475,10.496
82078,0.144,1.781,9.653
82133,0.249,1.781,9.002
82197,0.699,1.791,10.046
82252,0.431,1.867,8.906
82318,1.216,1.686,9.577
82373,0.259,2.222,10.247
82432,0.134,1.915,9.567
82492,0.153,1.848,9.529
82553,0.192,2.107,9.845
82613,0.316,1.925,10.142
82673,1.006,2.155,9.998
82748,0.536,2.03,9.663
82816,0.737,1.226,8.322
82873,0.163,0.9,9.28
82932,0.01,1.36,9.606
82993,0.565,0.747,8.638
83053,-0.124,0.833,8.131
83123,-0.105,1.101,9.012
83192,0.23,0.594,9.567
83253,0.479,0.613,10.056
83323,0.508,0.527,10.065
83393,0.373,0.67,10.19
83453,0.115,0.153,10.209
83512,-0.249,0.431,9.922
83573,0.019,0.46,10.803
83642,0.316,0.795,10.295
83712,0.23,0.479,8.399
83772,0.134,-0.153,9.941
83833,-0.038,0.316,10.831
83892,0.192,0.077,9.711
83953,-0.259,0.144,9.912
84013,-0.23,-0.211,7.412
84072,-0.469,-0.546,8.495
84132,0.297,0.306,11.176
84193,-0.182,-0.613,11.732
84257,0.268,-1.322,14.116
84312,0.594,0.278,9.443
84373,0.766,0.335,10.343
84432,-0.737,0.0,12.795
84492,0.297,-0.326,12.555
84552,-0.326,0.488,10.573
84612,-0.067,0.402,9.251
84677,-0.488,0.268,10.534
84733,0.383,0.182,9.72
84792,0.182,0.335,9.29
84852,0.287,0.268,7.997
84912,-0.144,-0.057,9.941
84976,0.0,0.029,10.659
85032,0.546,0.144,10.257
85092,0.46,0.354,8.705
85152,-0.373,-0.029,9.539
85213,0.297,0.192,10.429
85272,0.393,0.335,9.883
85332,0.536,0.172,8.973
85393,-0.23,0.134,10.266
85453,0.354,0.077,10.716
85513,0.163,0.0,9.759
85573,0.728,-0.038,8.945
85633,-0.249,0.0,9.96
85693,0.306,0.096,11.157
85755,0.412,0.469,9.653
85829,0.364,0.182,8.772
85877,-0.029,-0.201,9.969
85933,0.182,0.278,9.95
85993,0.383,-0.086,11.1
86052,0.498,0.335,9.73
86112,0.488,0.086,9.893
86172,0.105,-0.048,9.749
86232,0.642,-0.201,9.95
86292,0.22,0.172,9.72
86352,0.785,0.335,8.677
86412,1.13,0.498,8.849
86473,0.268,0.297,10.075
86538,1.025,0.067,8.83
86592,0.393,-0.163,10.783
86653,1.092,0.192,8.073
86713,0.077,0.134,10.898
86773,1.063,0.508,8.82
86862,0.077,-0.354,11.272
86932,0.709,-0.134,11.329
86993,0.412,-0.153,8.83
87052,1.81,-0.699,11.827
87113,1.226,0.278,11.55
87173,0.91,-0.144,7.815
87233,-0.048,0.421,7.958
87292,0.891,1.12,8.753
87357,0.287,0.345,8.61
87412,0.536,-0.421,9.606
87491,1.207,-0.115,10.056
87553,0.603,0.144,9.807
87612,0.737,-0.105,9.787
87679,0.718,0.019,10.86
87732,-0.287,0.057,11.234
87793,0.441,-0.268,10.4
87872,0.239,-0.306,11.473
87932,0.575,0.124,9.902
87992,0.852,0.067,9.328
88053,0.469,0.412,9.108
88112,0.259,0.086,9.251
88173,0.709,0.488,9.395
88232,0.546,0.0,9.874
88298,0.393,-0.134,10.372
88362,0.393,-0.057,10.056
88432,0.172,0.096,10.602
88493,0.919,-0.163,9.893
88553,0.603,-0.306,10.276
88618,0.622,-0.278,9.491
88693,0.939,-0.172,8.973
88753,1.417,0.287,9.462
88822,0.373,0.115,8.82
88872,0.383,-0.019,9.606
88932,-0.096,-0.326,10.027
88993,0.096,-0.383,10.056
89052,0.086,-0.508,9.184
89117,1.034,-0.335,9.28
89173,1.101,-0.057,9.845
89238,0.575,0.268,9.433
89297,1.092,-0.201,9.989
89373,0.086,-0.364,9.749
89437,0.67,0.057,9.625
89493,0.536,-0.46,9.491
89557,0.163,-0.575,9.768
89613,0.144,-0.057,8.064
89672,0.728,0.163,8.983
89738,0.718,-0.038,9.634
89803,0.249,-0.163,8.724
89877,0.517,0.048,7.901
89932,0.871,-0.019,8.37
89993,1.13,-0.393,9.108
90053,0.728,0.029,9.711
90112,0.958,-0.038,9.443
90172,0.029,-0.508,9.213
90233,0.661,-0.699,10.113
90297,0.201,0.211,10.602
90363,0.814,-0.105,8.811
90412,0.709,-0.096,10.295
90473,1.073,0.086,9.787
90533,0.814,-0.105,10.831
90593,0.46,0.067,11.521
90653,0.278,-0.029,10.151
90713,0.508,-0.306,10.793
90778,0.594,0.134,9.72
90832,0.575,0.364,9.29
90893,0.718,0.508,8.772
90953,0.201,0.393,8.849
91012,0.824,0.086,9.443
91072,0.517,0.259,8.399
91132,1.197,0.469,8.112
91193,1.408,0.939,8.801
91252,1.36,0.881,9.922
91312,1.044,0.373,9.088
91372,1.168,0.929,8.82
91432,0.929,1.35,10.171
91497,1.772,0.9,8.169
91558,1.015,1.532,8.15
91613,0.862,1.475,10.305
91673,1.178,1.695,12.641
91733,1.274,1.149,10.831
91792,1.513,1.35,9.5
91852,1.695,1.14,9.797
91917,1.638,1.456,10.439
91972,1.255,1.724,11.712
92033,1.053,1.714,10.803
92093,1.197,1.082,10.372
92152,1.551,1.513,10.017
92212,1.781,1.417,10.946
92277,0.737,1.935,9.989
92332,1.982,1.322,9.529
92392,1.389,1.101,11.847
92453,1.14,1.657,8.724
92517,-0.105,2.059,9.989
92572,0.747,1.513,9.673
92637,1.13,0.527,6.914
92692,1.149,0.115,7.029
92757,0.891,1.743,5.401
92820,2.385,0.804,7.499
92892,1.484,0.517,10.314
92953,0.661,0.163,10.305
93012,0.795,1.255,11.789
93073,0.862,0.019,11.052
93133,1.168,0.345,10.285
93192,0.536,-0.326,10.266
93253,0.584,0.038,10.343
93312,0.546,0.565,9.261
93372,1.379,0.182,12.766
93433,0.441,0.23,9.606
93492,0.431,-0.182,10.64
93552,0.517,-0.134,12.086
93612,0.335,0.373,10.41
93677,1.551,-0.067,10.113
93732,0.23,0.019,10.142
93794,0.718,0.134,8.332
93863,0.622,0.259,9.184
93932,1.025,-0.057,11.1
93993,0.383,-0.01,8.926
94052,0.871,-0.316,9.05
94112,0.843,-0.22,8.734
94172,0.622,-0.172,9.51
94233,0.469,-0.373,8.945
94298,1.044,-0.096,8.035
94357,0.785,0.278,8.025
94437,1.446,0.651,9.749
94497,1.149,0.546,10.046
94553,1.944,0.498,8.782
94612,1.197,0.613,7.872
94673,0.871,0.153,9.95
94732,0.584,-0.354,9.088
94793,1.14,0.297,9.012
94853,1.714,0.22,9.634
94913,1.063,-0.038,10.554
94972,0.996,0.019,11.368
95032,1.599,0.613,8.906
95092,1.255,0.211,11.138
95158,1.149,0.45,13.599
95216,1.044,0.383,10.257
95277,1.073,0.383,9.519
95333,0.603,0.249,10.218
95392,-0.077,-0.105,12.68
95453,1.015,0.201,8.418
95513,0.632,0.22,9.404
95573,1.465,0.115,11.425
95637,1.006,0.469,8.064
95693,0.124,0.067,8.226
95754,1.446,0.067,8.15
95828,0.929,0.115,12.086
95892,0.287,0.0,10.937
95953,-0.134,0.019,8.792
96012,0.958,0.393,10.094
96073,0.01,0.048,9.606
96138,0.986,0.067,7.633
96202,1.245,0.622,8.495
96272,0.833,0.278,9.835
96332,0.919,0.517,9.615
96393,0.967,-0.029,9.251
96452,1.025,0.096,7.843
96512,1.149,0.268,11.406
96577,0.862,0.048,10.592
96632,1.178,0.421,9.299
96705,0.728,0.584,9.203
96773,0.306,0.163,9.251
96836,0.977,0.124,8.772
96908,0.871,0.172,8.945
96977,0.603,0.824,9.232
97032,0.249,0.421,10.63
97097,0.287,0.316,8.744
97152,0.441,0.527,8.083
97214,0.441,0.335,9.27
97220,0.45,0.335,9.27
97276,0.479,0.297,10.008
97333,0.278,-0.077,9.031
97398,0.718,0.23,8.265
97454,0.412,0.383,9.424
97513,0.565,0.421,9.845
97572,0.421,-0.01,10.171
97632,0.364,0.517,8.59
97692,1.063,-0.029,9.06
97753,0.383,0.172,9.462
97814,0.536,0.306,9.175
97872,-0.048,0.201,9.644
97932,0.402,0.153,8.59
97993,0.67,0.249,9.088
98052,0.594,0.01,9.845
98113,0.306,0.22,9.27
98173,0.105,-0.124,9.165
98233,0.527,0.105,8.552
98293,0.23,0.086,8.638
98352,0.68,0.0,9.041
98412,-0.182,-0.115,8.504
98473,0.354,-0.479,8.849
98532,0.833,-0.536,9.117
98592,0.91,-0.469,8.926
98652,1.034,-0.249,10.573
98713,0.354,-0.297,10.669
98773,0.297,-0.22,9.673
98832,0.718,-0.871,8.121
98892,0.642,-0.565,9.443
98957,0.354,-0.029,10.333
99012,0.316,-0.393,9.663
99072,0.278,-1.168,11.329
99133,0.699,-0.967,10.429
99192,0.919,-0.661,9.462
99257,1.168,-0.632,8.964
99332,0.326,-0.239,8.887
99392,0.086,-0.613,9.242
99453,0.661,-1.082,11.234
99512,0.776,-0.709,9.922
99577,0.833,-0.929,9.606
99632,0.546,-0.029,9.749
99693,0.843,-0.431,9.74
99753,1.111,-0.316,11.157
99819,0.335,0.115,9.701
99893,0.824,0.057,9.519
99953,1.226,-0.105,9.979
100012,0.852,-0.019,9.74
100068,0.69,-0.249,10.132
100144,0.488,-0.46,10.994
100192,0.871,-0.335,9.519
100257,0.498,-0.096,9.558
100313,0.0,0.086,8.906
100372,1.226,-0.182,10.027
100432,1.226,-0.144,11.416
100493,1.504,0.249,10.793
100553,0.527,0.747,11.454
100613,0.804,0.565,10.573
100672,0.843,0.345,10.19
100732,-0.019,0.144,9.318
100792,0.622,0.115,9.088
100853,-0.019,-1.159,8.983
100912,1.226,-1.197,10.123
100973,0.642,-1.302,10.889
101033,0.584,-1.379,9.175
101092,0.287,-1.034,7.432
101153,0.69,-0.546,8.514
101213,0.575,-0.326,9.002
101272,1.58,-1.159,9.567
101337,0.651,-0.814,10.008
101392,1.053,-0.757,9.357
101452,1.341,-0.852,8.782
101513,1.369,-0.469,8.993
101578,1.12,-0.441,9.242
101633,1.379,-0.259,10.602
101692,1.13,-0.096,10.736
101752,0.948,0.115,10.171
101810,0.852,-0.163,9.309
101877,1.504,1.216,9.462
101937,1.341,0.431,10.573
101992,0.996,0.536,9.529
102052,1.101,0.0,9.701
102113,1.092,-0.498,9.462
102172,0.057,-0.201,9.874
102244,1.092,-0.555,9.787
102297,0.814,-0.038,9.778
102352,1.762,-0.326,9.51
102412,0.651,-0.01,10.333
102472,1.149,-0.182,9.816
102532,0.575,0.211,9.931
102593,1.14,0.057,9.041
102652,1.379,0.038,9.874
102713,0.891,-0.048,10.678
102772,0.939,0.469,8.294
102832,0.163,-0.259,8.696
102893,1.494,0.23,9.012
102952,2.394,0.67,8.485
103012,1.772,0.661,9.586
103072,0.967,0.479,9.931
103132,0.824,0.565,9.596
103192,0.948,0.45,8.092
103252,1.954,0.527,8.217
103312,1.398,0.373,9.615
103372,1.791,0.536,9.558
103433,1.034,0.048,9.663
103492,1.504,0.364,8.696
103558,1.302,0.019,9.941
103612,1.302,0.077,10.142
103673,0.996,-0.019,9.74
103734,1.494,-0.105,9.127
103792,1.159,-0.067,8.792
103853,0.977,0.153,10.266
103912,0.929,-0.077,9.893
103977,1.092,-0.239,9.404
104038,1.427,-0.335,9.213
104093,0.69,0.201,10.946
104158,1.226,0.0,10.726
104212,1.111,-0.211,10.094
104273,1.848,0.019,9.96
104337,0.728,0.259,11.454
104392,1.417,-0.067,9.28
104452,1.417,0.067,9.529
104458,1.082,0.067,9.529
104513,1.264,0.115,10.333
104572,1.293,0.144,9.73
104632,1.398,0.45,9.969
104693,1.494,0.757,10.4
104758,1.264,0.45,10.343
104812,1.848,0.804,8.236
104872,1.657,1.092,9.989
104933,0.632,0.747,9.998
104992,1.111,0.776,8.6
105052,0.747,1.063,10.592
105112,0.814,0.891,9.73
105172,0.661,1.101,7.796
105232,0.871,1.197,9.596
105292,0.23,1.159,9.883
105353,0.757,1.437,9.108
105422,0.594,1.197,10.544
105482,0.326,1.437,9.902
105543,0.699,1.264,7.92
105627,0.565,1.973,9.912
105693,0.814,1.59,8.274
105757,0.757,2.069,9.28
105807,0.546,1.992,10.285
105873,0.498,1.762,9.653
105933,0.871,2.107,9.835
105997,0.718,2.193,9.625
106052,0.383,2.184,11.042
106120,0.527,2.145,9.51
106172,0.958,2.394,8.37
106237,0.488,2.519,9.337
106292,0.498,1.935,10.506
106352,0.383,1.896,9.06
106417,1.523,2.538,8.638
106472,0.316,1.906,11.396
106533,0.431,2.184,10.257
106593,0.421,2.308,9.213
106652,0.814,2.174,8.083
106713,0.804,2.011,10.918
106772,0.536,1.906,9.989
106832,0.766,2.337,8.83
106893,0.862,2.49,9.299
106952,0.527,2.413,10.113
107012,0.431,2.404,9.893
107072,0.919,2.614,9.222
107137,1.504,3.112,9.787
107193,0.412,2.002,9.606
107252,-0.345,1.437,8.447
107312,-0.22,2.27,9.366
107373,1.264,2.365,8.169
107432,1.331,2.519,8.83
107492,0.517,2.184,9.385
107552,0.45,2.375,9.414
107615,0.354,2.5,8.705
107673,0.843,2.519,7.824
107732,0.9,2.231,9.807
107798,0.824,2.097,10.458
107858,0.345,1.848,9.194
107932,0.814,2.059,9.27
107998,0.67,1.408,9.989
108052,0.795,1.427,10.582
108112,0.776,1.255,10.151
108173,0.632,0.9,9.586
108232,0.469,1.465,8.437
108298,0.373,1.159,8.389
108352,0.517,1.006,10.228
108413,0.814,0.498,10.046
108477,0.594,0.584,9.519
108533,0.824,0.527,9.778
108592,0.565,0.316,9.127
108653,0.527,0.373,9.376
108718,0.546,0.584,9.931
108772,0.977,0.306,8.485
108837,0.479,-0.01,9.855
108892,0.536,0.048,9.577
108952,0.795,-0.134,10.477
109013,0.757,-0.182,9.74
109078,0.594,-0.268,9.787
109132,0.287,-0.259,8.495
109192,0.67,-0.345,9.309
109253,1.025,-0.479,9.232
109313,0.776,-0.105,8.724
109373,1.063,-0.029,7.7
109432,1.283,-0.316,8.667
109494,0.651,-0.249,10.41
109557,0.804,-0.172,9.519
109618,0.718,-0.46,9.539
109672,0.948,-0.498,10.324
109737,1.437,-0.421,9.644
109813,1.245,0.019,10.084
109872,0.919,0.01,9.653
109932,0.546,-0.651,10.429
109993,0.565,-0.488,10.18
110053,1.063,-0.603,10.841
110112,0.958,-0.297,8.945
110177,1.676,-0.259,9.481
110232,1.542,-0.632,10.649
110288,0.977,-0.019,9.874
110352,1.015,-0.038,10.381
110412,1.36,-0.105,10.362
110473,0.68,-0.555,11.435
110533,0.412,-0.46,10.965
110597,1.523,-0.709,9.194
110652,0.986,-1.044,10.333
110712,1.322,-0.316,9.491
110772,1.437,-0.105,9.136
110837,1.532,0.326,10.86
110893,1.609,-0.728,11.636
110952,0.814,-0.259,11.396
111013,1.13,0.469,12.297
111077,1.475,0.881,7.489
111132,0.23,-0.172,12.594
111194,2.95,-1.657,9.51
111253,3.706,-1.053,12.249
111312,2.614,-0.029,10.994
111378,1.935,0.881,10.927
111432,0.479,0.833,10.755
111492,0.393,0.373,10.027
111552,1.666,0.393,9.989
111612,1.073,-0.555,10.937
111672,1.686,-0.814,9.711
111732,1.609,-0.326,10.171
111797,1.188,-0.144,9.232
111852,1.092,-0.22,9.529
111912,0.833,-0.163,9.998
111972,1.437,-0.23,8.993
112032,1.657,-0.402,9.759
112092,1.58,-0.498,9.864
112153,2.059,-0.211,11.569
112213,2.184,-0.086,11.167
112272,0.881,-0.22,8.744
112333,0.536,-1.178,8.629
112393,0.259,0.067,10.965
112455,0.144,0.268,11.253
112518,2.701,0.843,10.697
112572,2.346,1.149,10.075
112637,2.078,0.757,9.414
112692,1.092,0.373,10.697
112763,1.532,1.274,10.755
112842,1.006,-0.067,10.104
112913,0.67,-0.134,10.927
112972,1.762,1.044,9.443
113039,1.35,0.048,10.621
113103,1.082,-0.029,10.209
113172,2.528,0.891,11.08
113232,1.571,0.565,9.902
113292,1.887,0.278,9.357
113358,1.686,0.211,9.912
113407,2.088,0.68,11.147
113478,1.159,0.517,11.645
113532,1.331,0.038,8.341
113593,1.188,0.67,9.232
113657,1.896,1.025,10.19
113713,2.48,0.939,11.023
113779,1.513,0.038,11.214
113831,1.896,-0.096,10.879
113893,0.871,0.613,11.569
113952,1.542,-0.326,10.429
114013,0.91,0.038,10.218
114073,0.804,0.192,9.002
114133,0.977,0.182,9.74
114193,1.982,0.048,8.772
114253,1.743,0.383,9.539
114312,2.337,0.182,10.123
114372,1.935,-0.077,9.845
114433,2.002,0.01,10.171
114492,2.614,0.201,9.653
114552,1.8,0.306,9.577
114613,2.5,0.297,9.079
114673,2.337,0.373,9.845
114733,1.781,1.034,9.165
114793,2.327,0.728,9.586
114852,1.226,0.785,10.008
114912,1.887,0.814,9.136
114972,1.906,0.45,9.376
115033,1.82,0.603,8.897
115096,1.743,0.0,9.864
115152,2.777,0.709,9.922
115217,1.417,0.057,9.366
115272,1.848,0.105,10.439
115332,2.883,0.871,8.878
115392,1.59,0.105,9.146
115464,1.551,0.22,10.63
115513,2.365,0.239,10.324
115573,2.72,0.345,9.366
115632,1.705,0.124,8.466
115692,1.188,-0.019,9.529
115754,1.389,-0.278,10.372
115800,1.331,0.69,9.883
115873,2.94,-0.68,11.425
115933,3.007,-0.69,10.831
115992,2.538,-0.029,10.621
116053,3.716,0.287,9.673
116112,1.887,0.077,9.51
116173,1.427,-0.077,9.165
116232,2.442,-0.383,8.092
116293,2.116,-0.316,10.238
116352,2.26,0.0,9.414
116413,2.155,-0.182,8.552
116472,2.806,-0.163,9.309
116533,2.059,-0.326,10.151
116592,1.858,-0.441,9.069
116653,2.749,-0.383,9.768
116712,2.193,-0.144,10.017
116783,2.088,-0.613,9.06
116852,1.944,-1.034,11.109
116912,2.768,-1.638,9.127
116973,2.538,-1.437,10.86
117032,2.203,-1.168,10.075
117092,2.365,-0.737,8.025
117152,2.595,-1.255,9.539
117212,2.078,-0.833,10.046
117272,2.145,-0.651,8.973
117333,2.021,-1.025,11.167
117393,2.308,-2.126,9.27
117452,2.298,-2.279,11.214
117512,1.963,-1.504,9.864
117572,2.088,-0.795,8.322
117639,1.082,-0.986,10.084
117693,0.852,-1.542,10.439
117753,1.188,-1.437,9.625
117820,1.015,-1.695,9.328
117892,0.9,-1.714,9.663
117952,0.383,-1.915,9.29
118017,0.651,-1.408,9.471
118073,0.536,-1.772,9.998
118133,0.613,-1.867,8.954
118193,0.469,-1.647,9.653
118258,0.182,-2.174,9.692
118317,0.555,-1.571,9.912
118372,0.824,-2.04,10.046
118432,0.383,-1.781,9.931
118493,0.364,-1.628,9.778
118553,0.393,-1.733,9.893
118612,0.115,-1.944,9.519
118672,-0.019,-1.743,9.184
118748,-0.603,-1.676,9.797
118812,-1.13,-1.609,9.902
118873,-0.814,-1.743,10.123
118933,-1.015,-1.571,9.395
118992,-0.852,-1.963,9.385
119052,-0.354,-2.423,10.333
119112,-1.264,-2.002,9.701
119173,-0.393,-2.04,10.582
119233,-1.149,-1.915,9.136
119292,-0.651,-1.992,9.452
119357,-0.68,-2.222,10.324
119413,-0.843,-2.03,8.38
119473,-0.278,-2.835,10.238
119532,-0.536,-2.557,9.864
119592,-0.804,-2.547,9.424
119658,-0.354,-2.298,9.606
119712,-0.996,-2.365,10.151
119772,-0.651,-2.911,9.462
119832,-0.479,-3.084,9.673
119893,-0.996,-3.745,8.811
119952,-1.283,-2.911,9.069
120012,-0.498,-2.241,10.515
120072,-0.498,-3.342,10.573
120077,-0.412,-3.342,10.573
120132,-0.144,-2.624,10.755
120192,-0.259,-3.352,8.638
120252,-0.852,-2.634,9.395
120312,-0.996,-2.768,10.898
120373,-0.441,-3.189,11.339
120432,-0.718,-2.72,11.31
120497,-0.105,-3.103,10.621
120572,-1.197,-3.132,9.749
120633,-1.331,-3.045,10.276
120703,-1.073,-3.026,10.18
120772,-0.757,-3.017,9.606
120837,-0.297,-2.95,9.922
120892,-0.201,-2.816,10.381
120953,-0.23,-2.931,10.87
121012,-0.316,-3.17,10.534
121072,-0.757,-3.074,9.855
121132,-0.91,-3.055,10.238
121192,-0.737,-3.314,10.008
121259,-0.536,-3.084,10.63
121312,-0.68,-3.045,10.783
121373,-0.345,-3.036,11.368
121432,-0.555,-3.084,10.803
121492,-0.929,-3.065,10.123
121552,-1.159,-2.902,9.27
121612,-1.36,-2.777,9.471
121672,-0.986,-2.433,9.682
121733,-0.488,-2.155,9.835
121802,-0.776,-2.672,9.826
121872,-1.044,-2.595,8.638
121932,-0.871,-1.982,8.466
121992,-0.91,-1.724,9.098
122053,-1.063,-1.59,9.835
122113,-0.91,-1.896,10.314
122173,-0.479,-1.915,9.682
122232,-0.68,-1.456,10.669
122292,-0.766,-1.283,10.994
122352,-1.302,-1.149,10.075
122412,-1.13,-0.814,9.357
122472,-0.613,-0.45,9.692
122532,-1.207,-0.699,10.774
122593,-1.417,-0.843,9.376
122652,-0.967,-0.211,9.194
122712,-1.312,-0.067,8.887
122773,-0.795,-0.134,9.155
122838,-0.383,-0.067,9.883
122893,-1.226,-0.01,10.266
122952,-1.025,0.306,9.471
123013,-1.053,0.306,10.132
123072,-1.034,-0.259,9.749
123139,-0.584,0.115,9.931
123199,-1.283,-0.153,10.142
123253,-0.843,0.077,9.912
123313,-1.226,-0.01,9.309
123372,-1.331,-0.029,8.514
123433,-1.092,-0.23,9.165
123492,-0.46,-0.067,9.979
123552,-0.785,-0.345,8.964
123612,-0.814,-0.469,9.385
123673,-1.168,-0.278,9.72
123748,-0.632,-0.345,9.653
123816,-1.082,-0.919,10.477
123868,-0.306,-0.929,11.301
123927,-1.073,-0.536,10.544
123988,-1.034,-0.508,10.151
124049,-1.81,-0.881,9.855
124107,-1.714,-1.053,10.534
124167,-0.996,-0.699,9.759
124227,-0.479,-0.69,10.295
124288,-0.115,-0.661,11.157
124347,-0.153,-1.101,10.218
124407,0.096,-0.527,10.238
124467,-0.785,-1.12,10.764
124527,-1.006,-0.852,9.845
124587,-1.015,-1.532,9.864
124648,-0.747,-0.69,9.606
124708,-0.536,-1.149,8.83
124764,-0.326,-1.437,9.979
124828,-0.038,-0.996,9.989
124887,-0.536,-0.958,9.318
124947,-0.69,-1.101,10.027
125008,-0.785,-1.025,11.272
125067,-0.67,-1.216,9.673
125127,-0.871,-1.264,9.682
125187,-1.13,-0.919,9.567
125247,-0.91,-1.111,8.954
125307,-0.287,-1.341,9.146
125368,-0.192,-1.532,9.634
125427,-1.006,-1.398,8.543
125487,-0.488,-1.82,9.146
125547,-1.264,-2.346,9.529
125608,-0.747,-2.222,9.998
125668,-0.891,-1.877,8.552
125728,-0.728,-2.193,9.452
125787,-0.661,-1.762,9.596
125847,-0.728,-1.724,9.28
125908,-0.958,-1.781,8.629
125967,-0.9,-1.772,9.673
126027,-0.603,-1.858,10.18
126087,-0.661,-2.116,9.673
126148,-0.306,-1.743,9.586
126207,-0.814,-2.136,9.979
126268,-0.594,-2.394,9.586
126327,-0.115,-1.743,9.51
126388,0.144,-1.532,10.209
126448,-0.077,-1.81,9.72
126508,-0.316,-1.724,11.454
126567,-0.46,-0.929,10.343
126628,-0.546,-1.657,9.452
126688,-1.006,-1.159,9.711
126747,-0.622,-1.954,9.51
126808,-0.699,-1.724,9.548
126868,-0.048,-1.484,9.969
126928,-0.287,-1.59,10.343
126988,-0.546,-1.484,10.199
127047,-0.565,-1.657,9.548
127107,-0.852,-1.235,8.571
127168,-0.69,-1.724,9.73
127228,-0.718,-1.839,10.783
127287,-0.718,-1.906,10.285
127347,-0.757,-1.36,9.749
127408,-0.306,-1.197,8.926
127467,-0.536,-1.877,9.893
127528,-0.565,-1.475,9.175
127583,-0.603,-2.03,9.433
127647,0.0,-1.092,9.797
127708,-0.479,-2.021,9.701
127765,0.038,-1.494,9.414
127827,-0.862,-1.609,9.96
127887,-0.603,-1.513,9.213
127947,-0.105,-2.892,9.567
128007,-0.067,-1.791,10.458
128067,-0.01,-1.848,9.491
128128,0.249,-1.82,9.634
128187,-0.479,-1.705,10.228
128247,-0.019,-2.356,9.232
128307,-0.622,-1.896,10.199
128368,-0.431,-1.599,9.577
128427,-0.105,-2.03,10.353
128487,-0.182,-1.695,10.755
128548,-0.077,-1.82,10.343
128608,-0.048,-1.456,11.473
128668,-0.182,-1.705,9.74
128728,-0.527,-1.992,10.573
128787,-0.469,-1.973,10.084
128847,-0.192,-1.8,8.744
128907,0.192,-2.251,10.104
128967,0.948,-1.283,10.697
129027,-0.431,-1.618,8.083
129087,-0.105,-0.153,9.797
129148,0.029,-1.398,10.458
129207,0.718,-1.954,11.377
129263,0.699,-0.833,10.333
129327,0.019,0.354,11.425
129387,-0.172,0.326,9.816
129443,-0.029,0.46,9.922
129508,-0.69,0.431,9.979
129567,-0.287,0.067,9.673
129627,0.45,-0.249,8.811
129688,-0.555,0.239,7.748
129748,-0.086,-1.264,10.285
129807,0.594,-0.469,10.63
129867,0.105,-0.105,12.0
129928,0.575,-0.115,11.626
129988,-0.182,-0.939,9.069
130048,-0.029,-0.22,9.893
130103,0.824,0.048,10.716
130167,0.048,-0.077,9.673
130228,-1.207,0.192,9.558
130283,-1.207,0.469,7.796
130288,-0.441,0.469,7.796
130348,0.057,0.115,9.615
130408,0.632,-0.431,10.755
130467,0.153,-1.073,11.588
130523,0.096,0.048,10.314
130588,0.278,0.096,9.606
130643,0.278,-0.134,10.554
130647,0.306,-0.134,10.554
130708,-0.23,0.067,8.14
130767,0.68,0.124,9.787
130827,0.153,0.326,10.563
130887,-0.192,0.124,10.946
130947,-0.393,-0.077,10.295
131007,0.575,-0.172,10.238
131067,0.019,0.172,11.052
131128,0.412,-0.23,10.678
131188,0.67,0.029,10.238
131247,-1.044,-0.661,10.496
131308,-0.124,-0.115,8.255
131367,0.297,-0.441,9.701
131428,-0.441,0.153,9.835
131488,0.105,0.287,8.389
131548,-0.239,-0.488,9.376
131608,0.297,0.029,10.429
131668,0.469,0.364,10.534
131723,0.268,0.594,9.701
131788,1.063,0.508,10.87
131848,0.086,0.699,10.333
131907,0.661,0.259,9.242
131967,0.096,0.029,10.065
132028,0.239,0.134,8.61
132088,0.45,0.412,9.682
132147,0.488,0.249,11.042
132208,0.096,-0.096,10.554
132267,0.508,0.431,9.021
132327,0.862,0.278,8.705
132388,0.824,0.833,9.606
132447,0.766,0.68,8.466
132508,0.297,0.441,9.012
132568,0.642,0.172,11.866
132628,-1.456,-0.105,10.228
132687,-0.086,1.006,7.345
132743,0.804,0.862,7.527
132808,0.785,0.776,10.084
132867,0.469,0.785,9.28
132928,0.891,0.91,9.625
132988,1.178,0.91,10.534
133047,0.785,0.91,10.362
133107,0.431,0.833,11.224
133168,0.0,0.517,10.985
133228,0.105,0.345,9.586
133287,0.737,0.373,9.347
133347,0.804,0.153,10.487
133408,1.437,0.105,9.606
133467,0.958,-0.029,9.644
133528,0.259,0.297,10.017
133587,0.316,0.278,9.357
133648,0.584,0.69,9.931
133707,0.622,0.45,10.372
133765,0.546,0.144,10.458
133828,0.431,0.239,9.203
133888,0.709,0.555,9.29
133947,0.766,0.192,10.63
134008,0.23,0.038,9.577
134068,-0.22,-0.067,10.18
134127,0.326,0.22,10.314
134188,0.488,0.153,11.272
134247,1.025,0.412,11.023
134307,0.45,0.67,9.855
134368,0.259,0.316,9.606
134423,0.69,0.421,10.582
134488,0.555,0.546,12.22
134548,0.134,0.23,10.544
134607,-0.508,0.077,9.242
134663,-0.508,0.057,9.471
134667,0.029,0.057,9.471
134727,-0.096,0.077,9.807
134783,0.488,0.287,9.768
134848,-0.345,-0.057,8.361
134907,0.287,0.737,10.18
134968,-0.019,0.996,10.985
135023,0.46,0.402,11.396
135088,0.45,0.354,10.716
135148,0.69,0.508,11.262
135208,0.153,0.642,11.53
135268,-0.871,0.91,10.151
135327,-0.603,1.417,10.381
135388,-0.153,1.159,10.391
135447,-0.038,1.255,9.625
135507,0.929,1.456,11.301
135567,-0.575,1.216,9.203
135628,-0.201,1.58,10.314
135687,-0.67,1.753,10.381
135748,0.029,1.935,11.645
135815,-0.824,2.27,10.372
135867,-0.211,1.417,10.554
135928,0.479,1.867,11.09
135987,0.0,1.935,10.41
136047,-0.297,2.72,9.682
136107,-0.718,2.241,9.95
136167,-0.776,2.701,9.299
136228,-0.814,2.806,9.711
136287,-0.565,2.863,10.333
136347,-0.172,2.806,10.247
136408,-0.268,3.218,10.965
136467,0.421,3.055,11.09
136528,0.153,3.505,12.268
136587,-0.201,2.94,10.927
136647,-0.69,2.94,11.061
136707,-1.082,3.285,10.171
136763,-1.082,2.787,9.749
136768,-0.45,2.787,9.749
136827,-0.115,2.816,8.973
136887,-0.287,2.691,9.577
136948,0.019,3.381,8.839
137008,-0.335,2.978,10.477
137067,-0.23,3.247,10.075
137127,-0.68,3.084,9.835
137183,-0.68,3.122,9.251
137188,-0.172,3.122,9.251
137243,-0.594,3.314,8.916
137308,-0.613,3.371,9.194
137367,-0.508,2.902,9.184
137428,-0.622,3.189,8.964
137488,-0.46,2.71,9.012
137548,-0.345,3.323,9.328
137607,-0.46,2.701,9.165
137667,-1.053,4.223,9.759
137728,-0.517,3.16,10.094
137787,-0.373,3.4,9.787
137848,-0.46,3.199,10.851
137907,-0.584,3.716,10.266
137968,-0.345,3.448,9.251
138027,-0.929,2.251,8.801
138087,-0.488,3.189,9.021
138147,-1.053,3.179,8.859
138207,-0.508,3.39,8.533
138268,-0.594,2.969,9.404
138328,-0.364,3.151,9.701
138387,-0.862,1.686,8.954
138448,-0.718,2.806,8.792
138508,-0.977,2.729,9.51
138568,-0.546,2.308,9.366
138628,-1.14,2.212,8.715
138687,-0.967,2.097,9.194
138747,-0.163,1.896,9.519
138809,-0.134,1.944,9.96
138868,-1.216,1.58,9.893
138927,-0.852,2.404,9.357
138987,-0.833,1.925,10.439
139047,-1.207,1.312,9.826
139107,-1.226,1.551,8.811
139167,-0.804,1.331,9.136
139227,-0.306,0.824,10.391
139288,-0.603,0.584,9.845
139347,-0.871,0.651,9.931
139407,-0.728,0.785,8.485
139467,-1.437,0.144,9.96
139523,-0.757,0.584,8.782
139587,-0.134,0.939,10.563
139648,-0.441,0.048,10.448
139707,-0.862,-0.115,10.563
139768,-0.728,-0.555,8.82
139837,-0.709,0.498,9.347
139907,-1.006,0.115,8.686
139967,-0.824,-0.172,9.893
140027,-1.341,-0.814,9.787
140087,-0.699,-0.488,8.705
140148,-1.034,-0.795,10.602
140207,-0.622,-0.747,8.935
140281,-1.264,-0.651,9.969
140328,-0.632,-0.01,9.883
140388,-1.025,-0.785,9.807
140448,-1.188,-0.364,10.343
140507,-0.479,-0.421,10.247
140567,-1.14,-0.441,10.324
140627,-0.67,-0.498,9.931
140687,-0.278,-0.632,10.391
140747,-1.36,-0.804,9.931
140826,-0.45,-0.651,10.448
140887,-1.283,-0.594,9.778
140947,-1.111,-0.517,9.941
141007,-0.804,0.316,9.797
141067,-1.896,-0.421,9.855
141128,-0.632,-0.268,9.998
141187,-0.69,0.029,10.534
141247,-1.092,-0.373,10.276
141308,-0.728,-0.134,11.128
141367,-1.341,0.01,9.117
141428,-1.532,-0.067,10.458
141487,-1.149,-0.192,9.471
141548,-0.728,0.67,9.337
141603,-1.053,0.086,9.06
141668,-0.919,0.22,9.558
141728,0.163,0.249,9.673
141788,-0.747,-0.144,9.835
141847,-0.508,0.278,10.218
141907,-1.006,0.728,9.998
141968,-0.986,0.172,10.353
142028,-1.379,-0.287,10.094
142088,-1.082,0.182,10.343
142147,-1.36,-0.613,9.74
142207,-1.35,-0.278,8.83
142268,-0.891,-0.048,9.797
142327,-1.12,-0.182,9.012
142387,-0.852,0.402,9.318
142448,-0.766,-0.182,9.998
142508,-1.101,-0.057,10.841
142568,-1.063,-0.029,9.51
142627,-0.287,-0.124,10.046
142687,-0.575,0.057,9.931
142743,-1.475,-0.048,10.094
142807,-0.354,0.057,11.1
142867,-1.695,-0.613,10.534
142928,-0.737,0.383,9.826
142987,-1.331,-0.613,10.63
143048,-1.571,-0.306,9.414
143107,-1.389,0.029,8.667
143168,-1.207,0.192,8.504
143227,-0.824,-0.517,8.523
143287,-1.006,-0.517,8.437
143348,-0.211,-0.105,9.5
143403,-0.211,-0.105,10.228
143408,-0.996,0.029,10.228
143468,-0.967,0.22,9.548
143527,-0.316,0.546,9.711
143588,-1.178,0.776,9.673
143647,-0.977,-0.144,9.357
143708,-0.622,-0.326,9.529
143763,-1.073,0.019,9.874
143825,-1.791,-0.814,8.667
143887,-0.46,-0.594,10.151
143947,-0.508,-0.105,9.347
144008,-1.073,-0.45,10.563
144068,0.163,-0.019,11.933
144128,-0.105,0.354,12.325
144188,-0.776,-0.067,10.841
144243,-0.776,-1.149,9.778
144247,-2.413,-1.149,9.778
144307,-1.322,-0.45,9.06
144367,-1.647,-0.661,8.38
144427,-0.795,-0.871,9.05
144488,-0.019,-0.163,8.447
144547,-0.699,-0.201,9.136
144607,-0.651,0.201,9.5
144667,-0.469,0.412,8.916
144728,-1.235,0.565,8.945
144787,-1.657,0.086,7.767
144848,-1.168,-0.402,9.318
144908,-0.431,-0.364,10.889
144968,-0.795,-0.115,9.615
145028,-0.364,-0.622,10.094
145087,-0.45,-0.048,10.381
145148,-1.13,-0.364,10.918
145208,-0.891,-0.134,10.42
145268,-0.967,0.105,9.251
145327,-1.724,0.718,10.19
145388,-1.274,-0.038,8.792
145447,-1.188,0.268,8.983
145507,-1.092,0.919,8.159
145568,-0.977,-0.077,9.213
145627,-0.939,0.402,10.19
145688,-0.67,0.383,8.744
145747,-1.666,0.316,9.72
145808,-1.015,0.622,9.922
145868,-0.479,0.278,8.686
145927,-0.622,0.326,10.046
145987,-0.651,0.632,10.276
146043,-0.651,0.67,8.399
146047,-1.159,0.67,8.399
146108,-1.561,0.91,9.021
146167,-0.852,-0.105,9.577
146227,-0.967,0.038,9.577
146288,-0.096,0.364,10.123
146348,0.115,0.278,11.032
146407,-0.68,0.335,10.391
146467,-0.795,0.508,10.534
146527,-1.044,-0.192,9.701
146588,-0.661,0.479,9.807
146647,-1.437,0.01,9.941
146708,-1.437,0.278,8.878
146767,-1.341,0.364,8.552
146825,-1.245,-0.029,7.518
146888,-0.23,0.393,9.213
146947,-0.383,0.077,10.362
147008,0.431,-0.172,9.596
147068,-0.718,-0.632,9.299
147128,-0.067,-0.498,10.678
147187,-0.01,0.038,10.257
147248,-1.073,0.096,10.036
147308,-0.326,0.239,9.979
147363,-0.306,0.239,10.429
147427,0.393,-0.144,8.715
147487,-0.134,-0.201,11.224
147543,-0.134,-0.316,10.812
147547,0.412,-0.316,10.812
147607,0.383,-0.163,9.663
147668,0.067,0.421,10.247
147727,0.0,0.393,9.807
147787,0.297,0.077,10.18
147853,0.172,0.096,9.481
147907,0.737,-0.536,9.203
147967,0.0,-0.335,9.826
148027,0.412,-0.804,8.763
148088,0.948,-0.239,9.108
148147,0.555,-0.843,10.822
148208,1.149,-0.843,9.088
148267,0.153,-0.642,10.851
148328,-0.019,-0.709,9.452
148388,0.46,-0.862,9.452
148447,0.737,-1.092,10.19
148507,0.144,-1.398,8.59
148568,0.077,-0.498,9.194
148627,-0.622,-0.804,8.993
148688,-0.077,-1.092,7.106
148747,-0.019,-1.025,9.653
148808,0.115,-0.948,9.606
148868,-1.427,-0.871,9.328
148927,-0.287,-0.843,8.868
148987,-0.441,-1.073,10.218
149043,-0.326,-1.369,9.855
149108,-0.565,-0.977,9.606
149167,-0.546,-1.178,10.027
149227,-1.082,-1.245,9.634
149287,-0.804,-1.484,9.682
149348,-0.546,-1.302,9.098
149407,-0.211,-0.948,10.41
149467,-0.393,-0.948,10.716
149527,-0.709,-1.044,9.443
149588,-1.025,-1.14,8.782
149648,-0.642,-1.322,9.021
149710,-0.919,-0.967,9.874
149763,-0.661,-1.082,8.926
149827,-0.019,-1.599,9.759
149887,-0.115,-1.255,10.266
149948,-0.622,-1.35,9.021
150008,-0.603,-1.571,9.874
150067,-0.68,-1.504,10.4
150128,-0.651,-1.101,9.558
150183,-0.651,-1.705,10.295
150187,-0.757,-1.705,10.295
150248,-0.862,-1.341,9.778
150308,-1.044,-1.437,9.232
150367,-0.833,-1.504,9.663
150427,-0.757,-1.781,10.036
150488,-0.306,-1.753,10.362
150547,-0.958,-1.484,9.749
150603,-0.958,-1.791,9.433
150667,-1.14,-1.915,10.132
150727,-0.9,-1.753,9.146
150788,-0.603,-1.944,9.548
150842,-0.881,-2.04,11.09
150908,-0.172,-1.82,11.262
150968,-0.393,-1.915,10.132
151028,-0.249,-1.992,10.161
151087,-0.354,-2.203,9.222
151148,-0.354,-2.365,9.682
151207,-0.067,-2.164,10.611
151263,-0.153,-1.963,10.027
151328,-0.814,-2.04,9.127
151388,-0.929,-2.356,9.242
151447,-0.776,-2.471,9.069
151508,-1.12,-2.193,8.437
151568,-0.584,-2.557,10.075
151627,-0.144,-2.04,9.136
151687,-0.728,-2.318,9.606
151748,-0.498,-2.107,8.849
151803,-0.508,-2.509,9.596
151867,-0.393,-1.781,9.673
151928,-0.728,-2.308,9.337
151987,-0.68,-2.155,9.27
152047,-0.594,-1.925,9.673
152108,-0.441,-2.155,10.755
152168,-0.402,-1.762,10.534
152228,-0.986,-2.021,9.682
152288,-1.36,-1.925,9.931
152348,-0.881,-2.059,9.768
152407,-0.68,-1.571,9.165
152468,-0.038,-1.81,9.606
152528,-0.201,-1.226,9.941
152587,-0.622,-1.551,9.29
152648,-0.824,-1.781,8.935
152708,-0.105,-1.839,9.29
152767,-0.211,-2.049,8.514
152827,-0.201,-1.992,9.749
152887,-0.575,-1.781,9.5
152948,-0.479,-1.322,9.864
153007,-0.45,-1.628,9.768
153067,-0.192,-0.91,9.222
153128,-0.115,-0.785,9.002
153187,0.239,-1.006,10.372
153247,0.45,-0.335,10.142
153308,0.038,-0.67,8.504
153368,0.46,-0.22,10.448
153427,0.019,-0.584,9.874
153488,0.67,-0.393,9.95
153548,0.67,-0.929,9.395
153607,1.034,-0.69,10.343
153667,1.255,-1.322,8.638
153723,0.766,-1.417,10.285
153783,1.216,-1.197,9.491
153847,1.81,-1.111,8.839
153908,1.025,-1.12,10.171
153968,1.724,-1.302,10.391
154028,1.073,-0.737,8.629
154088,1.906,-0.737,9.816
154147,2.27,-0.651,8.523
154207,1.676,-0.182,10.391
154263,2.097,-0.182,8.792
154323,2.174,-0.306,8.973
154388,2.777,-0.421,11.866
154447,1.896,-1.063,10.515
154508,2.126,-0.91,9.548
154567,2.48,-0.919,9.826
154627,2.777,-0.527,10.4
154687,3.045,-0.297,11.454
154748,2.48,0.249,8.064
154819,2.634,0.603,8.772
154867,0.718,-0.201,9.759
154923,2.174,-0.795,10.036
154988,2.184,-0.124,7.709
155048,2.825,0.01,10.736
155108,3.112,-0.651,9.529
155167,2.116,-0.833,12.402
155228,1.896,0.335,9.28
155285,2.203,0.804,9.471
155347,2.758,-0.115,9.634
155407,1.733,0.239,8.255
155467,1.81,-0.144,8.868
155527,1.695,-0.23,9.96
155587,3.103,0.268,5.679
155648,2.605,0.67,12.517
155707,1.523,0.306,13.149
155767,1.666,-0.316,13.13
155824,1.14,-0.287,9.855
155887,1.915,-0.105,9.424
155947,2.5,0.144,9.644
156007,2.442,-0.067,12.795
156067,3.237,0.163,11.483
156127,1.379,-0.239,9.424
156187,2.471,-0.766,10.918
156247,2.27,-0.383,8.724
156303,1.676,-0.431,10.381
156367,3.026,-0.718,11.301
156427,2.002,0.019,9.979
156487,1.925,-0.096,10.908
156548,2.835,-0.852,9.232
156607,3.026,-0.029,9.548
156667,3.62,0.488,9.127
156727,1.494,0.019,9.031
156787,2.729,0.249,10.171
156839,2.116,-0.584,10.343
156907,1.427,0.929,9.596
156968,1.867,0.22,8.294
157027,1.523,0.01,10.372
157087,3.266,-0.393,9.989
157148,1.513,-0.22,10.64
157208,1.724,0.048,9.462
157263,1.724,0.134,9.711
157267,0.632,0.134,9.711
157328,-0.201,0.46,8.82
157383,0.383,-0.192,8.705
157443,-0.144,0.268,9.222
157508,-0.172,-0.067,11.004
157567,-0.048,-0.268,9.491
157627,1.341,0.249,12.603
157687,1.762,0.019,15.189
157747,1.896,-0.278,6.196
157803,-0.718,-0.661,5.708
157868,-0.268,-0.067,6.819
157927,-2.988,-0.067,11.157
157988,-0.575,0.153,9.548
158048,-0.345,0.508,9.883
158108,1.264,-0.383,10.094
158167,0.326,0.22,9.96
158227,0.575,-0.048,10.027
158287,-0.862,-0.211,9.242
158348,-1.082,-0.431,9.989
158408,-1.006,-0.766,10.41
158467,-3.199,1.111,6.196
158528,-3.534,0.824,3.773
158587,0.306,0.201,9.29
158647,0.373,0.546,10.084
158708,0.086,-0.412,12.718
158765,1.829,-0.144,12.507
158823,1.925,-0.661,12.661
158887,-1.417,-0.23,11.77
158947,-1.724,0.163,8.878
159008,-2.021,0.105,9.615
159067,-2.116,0.029,9.012
159127,-2.107,-0.22,9.328
159188,-1.274,-0.23,9.088
159243,-1.274,0.115,9.002
159247,-1.159,0.115,9.002
159307,-0.776,-0.01,9.031
159367,-1.044,-0.01,9.175
159427,-1.245,-0.115,8.447
159483,-1.245,-0.115,9.989
159487,-1.226,-0.115,9.989
159547,-1.551,0.01,10.391
159607,-1.494,-0.067,9.663
159668,-1.216,-0.201,9.979
159727,-1.264,0.01,9.433
159787,-1.034,0.029,9.462
159847,-1.36,0.364,9.357
159908,-1.216,0.144,8.772
159967,-1.465,0.105,8.466
160028,-1.274,0.105,8.926
160088,-1.044,0.22,8.763
160147,-0.891,0.546,9.586
160208,-1.207,-0.345,9.299
160267,-1.389,-0.019,8.993
160327,-1.255,0.0,9.95
160387,-1.073,-0.153,10.19
160443,-1.475,-0.038,10.716
160508,-1.389,0.287,9.309
160567,-0.69,0.373,9.012
160627,-0.804,0.642,9.548
160683,-1.025,-0.067,10.4
160743,-0.929,0.373,10.621
160808,-1.484,0.211,9.606
160867,-1.379,0.115,9.519
160923,-1.14,0.22,8.897
160987,-1.197,-0.182,9.424
161048,-1.341,0.038,10.027
161108,-0.824,0.517,9.27
161167,-1.12,0.536,10.171
161228,-1.053,0.527,10.611
161287,-0.287,0.469,9.28
161348,-0.986,0.536,10.716
161408,-1.513,0.364,10.582
161463,-0.326,0.22,10.017
161529,-1.532,0.077,10.247
161583,-0.737,0.594,9.893
161648,-0.699,0.508,9.874
161707,-1.149,0.029,10.104
161768,-0.967,0.728,10.736
161827,-1.245,0.134,9.596
161887,-0.757,0.345,10.582
161947,-1.226,0.584,9.337
162008,-0.584,0.785,8.916
162067,-0.9,0.555,10.218
162127,-0.718,0.479,10.333
162187,-0.843,0.814,10.391
162248,-1.111,0.086,11.214
162308,-0.939,0.086,10.534
162367,-0.555,-0.105,10.381
162427,-1.484,-0.086,9.653
162488,-0.306,0.048,9.615
162547,-0.871,-0.498,10.305
162608,-0.622,-0.249,8.447
162667,0.297,-0.038,10.209
162727,-0.067,-0.469,11.329
162788,-0.086,-0.488,8.993
162847,1.006,0.91,9.184
162908,-1.178,0.613,9.002
162967,-0.661,0.613,9.222
163028,-1.13,0.354,9.27
163087,-0.402,0.306,9.29
163147,-0.182,0.038,10.314
163208,-0.364,0.316,9.807
163268,-0.345,0.201,9.194
163327,-0.594,0.699,10.18
163387,-0.555,0.287,9.606
163447,-0.69,0.603,10.477
163507,-0.871,0.115,10.918
163567,-0.287,0.249,10.621
163627,-0.68,0.345,8.772
163688,-0.431,0.316,9.778
163752,0.01,0.211,9.548
163814,-0.287,0.508,9.079
163887,0.038,0.057,10.87
163947,-0.316,0.105,10.611
164007,0.115,-0.153,10.63
164068,0.201,0.192,9.979
164128,0.642,0.278,10.793
164188,0.421,0.421,11.042
164247,0.517,0.163,11.071
164307,0.316,0.105,9.615
164367,0.536,-0.019,10.353
164428,0.306,-0.038,8.466
164487,0.651,-0.077,10.209
164548,0.249,0.622,9.002
164607,1.197,0.22,8.839
164663,1.197,0.0,11.08
164668,0.105,0.0,11.08
164727,0.785,0.431,9.069
164787,0.594,0.144,10.104
164848,0.412,0.326,9.395
164907,0.326,-0.287,8.983
164967,0.651,-0.057,9.155
165027,0.517,-0.91,11.607
165087,0.517,-0.144,12.096
165148,0.23,0.192,11.301
165208,0.508,-1.034,11.55
165268,0.632,-0.326,12.249
165323,0.996,0.527,10.582
165387,1.092,-0.163,10.18
165447,1.963,0.057,10.918
165508,2.279,-0.412,9.318
165568,2.193,-0.134,9.222
165627,1.551,-0.508,10.707
165683,1.551,-0.479,9.376
165687,1.743,-0.479,9.376
165748,1.599,-0.412,10.755
165807,0.958,-0.469,11.272
165867,1.887,-0.699,9.701
165928,1.35,-0.268,9.558
165987,1.906,-0.182,11.281
166048,2.998,-0.297,9.041
166107,3.304,-0.249,10.889
166167,2.26,-0.077,9.299
166227,1.915,-0.622,10.793
166287,3.045,-0.824,9.855
166348,3.371,-0.852,8.38
166407,2.729,-0.326,9.816
166467,2.662,-0.163,9.653
166528,2.193,-0.316,11.1
166588,3.563,-0.326,10.755
166648,3.294,-0.048,10.017
166707,2.911,-0.268,9.548
166767,3.409,-0.565,9.041
166830,3.409,-0.747,9.673
166843,2.911,-0.747,9.673
166908,3.505,-0.527,9.414
166968,3.323,-0.527,9.098
167027,3.63,-0.709,9.701
167087,3.553,-0.776,9.347
167148,3.333,-0.891,10.104
167207,2.576,-0.479,9.586
167267,2.413,-1.168,10.42
167327,2.931,-1.073,9.491
167387,3.17,-1.168,8.667
167443,2.873,-1.676,10.669
167508,2.863,-1.369,10.151
167563,2.116,-1.714,9.692
167628,0.939,-1.647,9.72
167687,0.565,-1.494,9.222
167748,0.182,-1.8,10.218
167808,0.345,-2.308,10.63
167867,0.632,-2.423,10.736
167928,0.144,-2.48,9.797
167988,0.096,-2.279,10.218
168047,0.412,-2.241,9.845
168107,-0.077,-2.078,10.161
168167,0.048,-1.982,8.859
168227,-0.067,-1.513,8.887
168287,0.373,-1.302,9.797
168348,-0.498,-1.504,10.171
168407,-0.23,-0.709,9.941
168467,-0.709,-0.814,9.835
168528,-0.737,-0.211,9.663
168583,-0.594,0.239,10.544
168647,-0.881,0.086,10.697
168707,-1.628,-0.105,9.414
168767,-1.638,0.287,9.414
168825,-0.881,-0.038,10.448
168887,-1.235,0.852,9.922
168947,-0.843,1.13,10.965
169008,-1.044,0.9,9.29
169068,-1.398,1.274,9.395
169127,-1.178,1.973,9.72
169187,-0.632,1.829,9.414
169247,-0.737,2.03,8.533
169307,-1.197,1.877,9.127
169368,-0.718,2.442,8.82
169428,-0.91,2.298,10.036
169488,-0.421,2.806,9.874
169543,-0.488,2.184,9.146
169607,-0.699,1.858,9.357
169663,-0.565,2.471,10.19
169728,-0.498,2.634,10.104
169787,-1.274,2.701,8.878
169847,-0.373,3.323,9.797
169907,-0.527,3.352,9.845
169968,-1.523,2.586,8.15
170028,-0.948,2.768,10.573
170087,-1.599,3.457,8.035
170143,-0.785,3.467,9.098
170208,-0.843,2.136,8.964
170263,-0.843,3.112,7.355
170267,-1.149,3.112,7.355
170327,-0.527,3.448,9.347
170387,-0.278,3.936,8.341
170448,-0.795,4.262,6.876
170507,-0.757,2.394,9.596
170563,-0.345,2.452,10.314
170628,-1.159,2.002,9.893
170687,-1.465,1.226,9.27
170748,-1.465,-0.105,9.328
170808,-0.785,-0.776,9.768
170867,-1.006,-1.609,10.266
170928,-1.188,-1.848,10.783
170987,-1.293,-1.686,10.688
171047,-1.465,-1.484,9.357
171107,-1.695,-0.996,10.228
171168,-1.456,-1.753,10.266
171228,-1.475,-2.155,10.688
171288,-0.996,-2.164,9.931
171347,-0.986,-2.701,10.448
171408,-1.197,-2.375,11.454
171467,-1.571,-2.653,10.745
171528,-1.657,-2.519,10.611
171587,-1.571,-3.17,10.218
171648,-1.484,-0.891,10.333
171708,-1.915,-2.49,8.945
171768,-1.762,-2.126,9.376
171827,-1.302,-2.365,9.452
171887,-1.647,-1.686,9.797
171948,-2.011,-2.241,10.621
172008,-1.446,-1.695,9.835
172067,-1.159,-1.657,10.056
172127,-1.12,-1.839,10.582
172187,-1.312,-2.049,10.046
172248,-1.676,-2.069,10.554
172308,-1.599,-1.456,9.778
172363,-1.599,-0.958,10.104
172368,-1.073,-0.958,10.104
172427,-1.523,-1.686,10.075
172487,-1.331,-1.101,10.046
172548,-1.255,-0.306,10.276
172607,-1.877,-1.082,10.994
172668,-1.178,-1.341,10.544
172728,-1.14,-1.073,10.075
172788,-0.824,-1.149,10.841
172847,-1.705,-1.235,10.199
172907,-0.967,-0.814,9.29
172967,-1.504,-0.632,9.136
173027,-1.513,-0.651,9.395
173087,-1.264,-0.651,10.19
173143,-1.264,-0.996,9.251
173148,-1.666,-0.996,9.251
173208,-0.833,-0.824,9.433
173268,-1.877,-0.239,8.255
173328,-1.896,-0.766,8.993
173388,-1.848,-0.364,9.012
173443,-1.848,-0.642,8.945
173447,-1.369,-0.642,8.945
173502,-1.168,-0.373,9.998
173568,-1.657,-0.211,8.763
173627,-1.092,-0.421,8.724
173687,0.45,-0.824,7.93
173747,-1.168,-0.469,9.73
173816,-1.053,-0.642,9.816
173887,-1.427,-0.402,9.778
173948,-1.389,-0.527,9.184
174007,-0.891,-0.594,9.222
174067,-1.35,-0.536,9.72
174128,-1.331,0.498,9.491
174187,-1.532,-0.316,9.711
174248,-1.312,0.057,9.021
174308,-1.341,-0.163,9.807
174369,-1.274,-0.383,9.203
174427,-0.891,0.134,9.069
174483,-0.996,0.048,10.065
174547,-1.331,0.383,8.562
174607,-1.274,0.144,8.514
174667,-0.594,0.393,9.855
174728,-1.398,-0.105,10.065
174787,-1.446,-0.096,9.5
174847,-1.542,-0.259,9.347
174907,-1.053,-0.383,10.544
174963,-1.417,-0.91,9.787
175028,-1.379,-0.622,9.194
175088,-0.833,-0.23,11.339
175148,-0.804,-0.057,9.835
175207,-1.312,-0.01,9.471
175267,-1.551,-0.105,10.496
175324,-1.484,0.086,8.878
175387,-1.159,-0.115,8.428
175450,-0.862,0.259,9.883
175507,-0.278,-0.23,9.673
175567,-0.757,0.488,9.682
175627,-0.555,0.096,10.621
175687,-0.546,0.278,10.592
175748,-1.14,0.316,9.462
175807,-1.159,-0.144,11.454
175868,-0.527,0.144,9.787
175927,-0.709,0.096,9.826
175987,-0.488,0.441,9.883
176047,-0.201,0.316,9.807
176108,-0.019,0.077,10.621
176168,-0.929,0.441,9.855
176227,-0.508,-0.019,10.075
176287,-0.124,0.239,9.96
176348,-0.345,0.153,10.257
176407,-0.45,0.057,9.021
176467,0.201,0.23,9.883
176527,-0.441,-0.153,9.184
176587,0.421,0.153,9.826
176648,-0.019,-0.287,8.313
176708,0.747,-0.144,8.6
176767,0.546,-0.402,9.749
176835,0.421,-0.01,11.013
176888,0.335,0.134,9.146
176947,0.211,-0.287,9.012
177007,0.096,-0.172,7.556
177067,0.182,-0.153,9.194
177128,0.575,-0.728,8.878
177187,1.015,0.057,8.418
177248,0.086,0.364,9.5
177303,0.718,0.172,8.265
177368,1.389,0.776,9.347
177428,1.647,-0.268,8.389
177487,1.178,-0.412,10.755
177548,1.159,0.067,9.165
177608,1.082,-0.22,10.113
177668,1.542,0.163,12.067
177727,1.293,0.134,8.437
177787,0.642,-0.182,9.96
177847,0.68,0.498,8.954
177908,0.699,0.326,8.073
177968,1.791,-0.134,9.146
178027,1.59,-0.23,10.065
178087,1.293,-0.048,10.142
178147,0.776,-0.182,9.749
178207,0.986,-0.153,9.002
178267,0.929,-0.086,8.983
178327,1.59,0.278,8.715
178387,1.226,0.278,9.845
178447,1.255,-0.067,10.257
178508,1.437,0.096,10.678
178568,1.245,0.278,10.084
178628,0.699,0.594,8.514
178687,1.159,-0.105,8.926
178747,1.504,0.0,8.686
178807,1.839,0.306,10.477
178867,0.555,-0.077,10.084
178927,0.737,-0.661,8.552
178988,0.785,-0.555,9.596
179047,0.996,-0.22,8.447
179103,0.852,-0.354,10.324
179167,0.757,-0.249,9.73
179227,1.025,-0.919,10.659
179287,0.651,-0.824,10.171
179348,0.335,-0.029,9.088
179408,-0.45,0.115,8.485
179463,-0.45,-0.948,9.452
179468,0.182,-0.948,9.452
179528,0.594,-0.211,10.487
179587,0.785,0.402,8.734
179643,1.551,-0.163,8.475
179708,1.283,0.163,7.987
179763,1.274,-0.019,7.805
179831,0.699,0.23,8.552
179887,0.642,0.46,8.868
179948,1.149,-0.077,9.194
180008,1.504,-0.402,7.106
180068,1.35,-0.287,9.778
180127,1.446,-0.373,9.625
180187,1.858,-0.364,8.954
180248,1.264,-0.259,8.734
180308,1.829,-0.555,8.648
180363,1.197,-0.747,9.242
180427,1.571,-0.766,7.652
180487,1.446,-0.699,9.443
180548,1.542,-1.063,10.276
180608,1.743,-0.986,8.255
180667,1.14,-0.91,8.389
180727,1.197,-1.111,10.42
180784,0.967,-0.939,9.883
180847,1.379,-1.006,10.391
180907,1.235,-0.852,9.673
180967,1.599,-1.025,10.324
181027,1.111,-0.661,9.108
181088,1.724,-0.565,9.519
181148,1.753,-0.469,10.123
181207,1.437,-0.776,10.027
181268,1.676,-0.785,9.29
181327,1.58,-1.427,9.96
181387,0.766,-1.197,10.994
181448,1.264,-0.824,8.638
181503,0.919,-1.513,9.328
181568,0.479,-1.293,11.291
181627,0.67,-1.168,9.136
181687,0.67,-1.925,9.337
181747,0.536,-2.26,10.994
181803,0.517,-2.136,9.653
181867,0.268,-2.136,9.519
181928,0.929,-2.806,11.32
181987,0.239,-2.279,10.027
182043,0.67,-2.203,9.088
182108,0.488,-2.528,10.171
182167,0.718,-2.04,10.745
182227,-0.642,-2.318,7.949
182287,0.402,-3.275,8.38
182347,-0.105,-2.298,11.128
182407,0.67,-1.954,10.429
182467,1.178,-2.145,11.186
182528,0.68,-2.002,10.046
182588,0.594,-2.145,8.993
182643,0.594,-2.145,11.368
182647,0.115,-1.762,11.368
182707,-0.23,-1.408,10.41
182767,0.431,-1.676,10.448
182832,0.488,-1.322,9.165
182888,0.354,-1.618,9.73
182943,0.824,-1.063,9.232
183007,0.622,-0.651,9.27
183067,0.23,-0.958,9.807
183127,0.757,-0.814,8.198
183187,0.163,-0.891,9.452
183248,0.919,-0.661,10.132
183307,0.517,-0.354,10.592
183367,0.306,-0.105,11.147
183423,0.306,-0.115,10.324
183427,0.527,-0.115,10.324
183487,0.728,0.096,10.333
183547,0.508,-0.057,10.113
183608,0.441,-0.172,8.744
183667,0.852,-0.316,9.634
183727,0.565,-0.22,9.471
183788,0.412,0.077,10.822
183848,0.172,-0.115,10.582
183907,0.479,-0.086,8.38
183967,0.622,-0.067,9.395
184027,0.498,-0.508,9.433
184087,0.115,-0.086,9.711
184147,0.373,-0.163,10.084
184207,0.661,-0.201,9.759
184268,0.297,0.259,9.299
184327,0.613,-0.124,10.285
184388,0.249,-0.057,9.969
184447,-0.029,0.172,9.692
184503,-0.029,-0.163,9.644
184508,0.373,-0.163,9.644
184567,1.044,-0.278,10.151
184627,0.948,0.565,10.841
184687,0.297,-0.201,11.578
184747,0.393,-0.105,8.581
184807,1.149,-0.603,9.491
184868,1.935,0.077,9.797
184927,2.107,0.01,11.09
184987,0.785,-0.144,9.912
185048,0.843,-0.115,10.104
185107,0.412,-0.297,9.615
185168,0.929,-0.124,10.582
185227,1.417,-0.077,11.234
185287,2.155,-0.086,9.519
185343,1.513,0.421,10.515
185408,2.126,-0.115,10.285
185467,1.523,0.105,11.837
185523,1.523,-0.057,10.937
185528,2.088,-0.057,10.937
185588,2.509,-0.536,9.835
185648,2.471,0.124,10.046
185708,1.034,-0.192,9.184
185767,0.843,-0.881,9.27
185820,1.992,-1.006,11.013
185888,1.705,-1.235,10.084
185947,0.651,-1.044,6.886
186008,1.053,-0.393,9.203
186068,0.105,-1.101,7.786
186127,1.226,0.038,7.173
186187,1.915,-0.757,10.228
186247,2.854,-1.676,10.946
186307,1.58,0.172,9.347
186368,1.14,-0.287,12.804
186423,2.03,1.082,9.653
186488,2.634,0.354,9.874
186547,1.762,1.015,9.539
186607,1.657,1.178,8.351
186668,2.021,1.053,8.792
186727,1.618,1.417,9.586
186787,1.772,0.967,11.272
186847,0.958,0.651,8.859
186907,0.852,0.661,10.774
186963,2.107,0.594,11.042
187027,0.69,-0.488,9.06
187088,1.293,0.086,8.887
187147,1.389,-1.159,9.902
187207,1.389,-1.686,11.253
187263,1.839,-0.508,11.645
187327,0.728,0.527,13.091
187387,0.824,-0.172,12.325
187447,-1.312,-0.91,8.59
187508,1.274,-0.804,10.611
187563,1.274,-0.804,7.029
187568,1.523,0.038,7.029
187628,2.002,-0.259,8.954
187688,1.216,-0.766,9.883
187747,0.919,-0.326,11.138
187808,1.235,-0.192,11.55
187867,1.877,-0.527,10.094
187927,0.814,0.0,9.462
187987,1.14,-0.479,9.644
188047,1.465,-0.048,9.644
188107,1.963,-0.68,7.776
188167,0.632,-0.622,10.774
188228,2.145,-1.12,9.922
188288,1.283,-0.814,9.883
188348,1.666,-0.306,9.893
188407,1.781,-0.153,8.667
188468,1.551,-0.584,10.582
188528,1.274,-0.211,10.017
188587,1.781,0.057,10.774
188647,1.772,-0.929,10.295
188707,1.36,-0.546,10.343
188767,1.829,-0.527,10.19
188827,1.14,-0.096,9.883
188887,1.235,0.565,9.653
188947,1.571,-0.22,8.648
189007,2.174,-0.124,10.333
189068,2.059,-0.239,11.569
189127,2.298,-1.312,11.559
189188,1.647,0.096,11.416
189248,1.398,0.077,8.389
189308,1.446,-0.239,8.562
189368,1.915,-0.383,7.939
189428,0.833,-0.594,7.767
189488,2.011,-0.785,9.519
189543,1.695,-0.661,8.878
189607,1.36,-0.862,7.029
189667,1.101,-0.364,7.106
189727,2.49,-1.159,10.171
189788,2.471,-0.881,9.462
189848,1.82,0.211,9.778
189907,0.795,-0.977,9.127
189967,0.948,-1.475,8.504
190028,0.622,-1.417,7.652
190087,0.632,-0.967,9.155
190147,1.456,-1.542,7.02
190207,2.155,-1.293,10.142
190263,1.666,-1.264,9.539
190327,1.638,-1.513,11.32
190388,0.239,-0.431,11.425
190447,0.948,-0.69,8.523
190508,1.283,-0.622,8.226
190567,0.699,-1.676,10.027
190627,1.025,-0.527,9.29
190683,0.479,-0.661,9.931
190746,1.389,-1.293,5.698
190810,1.188,-1.504,7.891
190868,1.12,-0.948,7.594
190927,0.996,-1.283,9.041
190987,0.268,-0.709,10.783
191048,1.159,-0.795,11.1
191103,1.159,-1.456,10.745
191108,0.728,-1.456,10.745
191164,0.546,-0.69,11.473
191227,0.986,-0.594,11.789
191288,0.91,-1.302,12.096
191347,0.383,-0.345,10.142
191407,0.757,-0.747,9.692
191463,-0.182,-0.517,8.504
191528,0.201,-0.661,8.188
191588,0.527,-0.373,10.534
191647,0.565,-0.536,11.358
191707,1.475,-1.168,10.257
191765,0.967,-0.862,10.343
191822,0.096,-0.01,8.504
191887,1.006,0.651,8.782
191947,1.159,0.441,10.19
192008,0.603,-0.182,9.768
192068,1.609,-0.785,12.383
192127,0.268,-0.421,11.061
192188,-1.542,-1.944,10.362
192247,0.46,-0.613,8.811
192307,0.91,-0.153,10.956
192367,0.776,-0.316,9.768
192427,0.642,-0.575,11.952
192488,1.063,1.628,9.692
192544,1.791,1.331,10.946
192607,0.871,0.153,11.128
192667,1.437,-1.733,8.772
192727,1.762,-0.757,9.874
192788,0.958,-0.326,12.364
192847,-0.086,-0.441,9.309
192907,0.182,-0.163,10.4
192968,1.245,-0.421,12.249
193027,0.201,0.316,8.073
193088,1.417,-2.241,10.937
193148,1.207,-1.302,11.837
193207,0.948,-0.622,11.301
193267,0.01,-0.278,9.816
193323,0.01,-0.278,8.753
193328,0.603,-0.661,8.753
193387,0.335,-0.354,9.117
193447,0.096,-0.747,8.954
193503,1.092,-1.12,8.648
193568,0.565,-1.178,9.232
193627,0.996,-1.101,9.577
193687,0.891,-0.68,9.653
193748,0.757,-0.421,10.132
193803,0.393,-0.239,10.247
193867,0.508,-0.891,9.079
193928,0.967,-0.46,9.548
193987,-0.038,-0.048,11.138
194047,1.8,0.335,11.684
194108,0.747,0.038,12.737
194167,0.306,-0.622,9.558
194228,0.584,-0.804,9.309
194283,0.68,-0.91,8.792
194347,0.469,-0.105,8.964
194407,0.555,-0.326,10.209
194467,1.034,0.067,10.18
194527,0.862,-0.555,10.515
194588,1.111,-0.01,10.879
194647,0.249,0.077,11.109
194707,0.364,0.019,10.918
194767,0.192,-0.278,9.73
194838,0.939,-0.067,11.147
194907,0.259,-0.603,9.491
194968,0.718,0.057,9.615
195027,0.268,0.594,10.391
195088,0.91,0.259,9.979
195147,0.862,-0.249,10.63
195207,0.91,-0.383,10.046
195267,0.364,-0.354,8.964
195327,0.259,-0.172,10.458
195389,0.651,-0.393,11.358
195447,0.373,-0.077,9.615
195508,0.383,0.211,10.602
195567,0.986,-0.431,10.439
195628,1.015,-0.192,11.665
195688,0.613,-0.469,9.969
195748,0.546,0.163,9.72
195803,0.527,-0.038,9.941
195867,-0.019,0.421,9.261
195927,0.46,-0.134,9.404
195987,0.536,-0.144,9.491
196047,0.517,-0.297,9.682
196108,1.149,-0.45,10.305
196167,0.747,-0.182,10.707
196223,0.852,-0.498,10.956
196287,0.824,-0.192,9.539
196348,0.421,-0.594,9.136
196407,0.766,0.029,10.199
196468,0.843,-0.144,11.119
196527,0.757,0.326,10.783
196587,0.479,0.306,11.013
196647,0.565,0.23,10.017
196707,0.536,-0.642,9.471
196767,0.259,-0.057,9.778
196827,0.613,0.124,10.678
196887,0.45,-0.019,9.653
196943,0.824,-0.105,10.084
197008,0.919,-0.23,10.448
197067,0.517,-0.278,11.119
197128,0.019,-0.306,10.027
197187,0.919,-0.134,9.242
197247,0.134,-0.105,9.433
197308,0.565,-0.412,10.276
197367,0.69,0.134,9.902
197427,0.373,-0.479,10.142
197488,0.709,0.057,9.165
197547,0.326,-0.086,9.931
197607,0.441,-0.153,9.979
197668,0.412,-0.115,10.525
197727,0.929,0.594,10.582
197788,0.048,0.249,10.774
197847,0.651,-0.306,9.73
197908,0.766,-0.153,8.724
197967,0.124,-0.469,9.912
198028,0.632,0.163,11.684
198088,0.326,-0.134,11.253
198147,0.881,0.268,10.467
198207,0.345,0.057,9.893
198267,0.565,0.287,10.822
198327,0.364,-0.048,11.349
198387,0.613,-0.077,10.467
198448,0.469,0.124,10.008
198507,0.833,-0.134,10.199
198568,0.182,-0.23,8.792
198628,0.01,0.115,9.548
198687,0.584,0.766,9.165
198743,0.833,-0.718,9.251
198807,0.728,0.402,10.161
198867,0.172,-0.086,10.343
198928,0.412,0.508,10.046
198988,-0.287,0.517,8.657
199043,-0.287,0.517,9.471
199048,0.824,0.096,9.471
199107,0.163,0.096,10.678
199167,0.029,0.22,10.056
199228,0.488,-1.561,9.165
199288,0.479,0.249,10.898
199347,0.508,0.651,10.171
199407,0.575,-0.316,8.859
199467,0.603,0.086,9.931
199528,0.881,-0.134,9.242
199588,0.967,-0.335,9.424
199647,0.067,-0.306,10.372
199708,0.259,-0.163,10.439
199763,0.335,0.412,9.404
199838,0.287,-0.057,9.711
199908,0.536,-0.373,9.395
199967,0.68,0.402,9.242
200027,0.019,-0.144,9.29
200083,0.335,0.096,9.309
200148,0.67,0.709,9.539
200208,0.402,0.057,9.883
200267,0.728,0.124,10.065
200328,0.278,-0.096,9.759
200387,0.211,-0.211,9.51
200448,0.364,0.038,9.586
200508,0.249,0.048,8.744
200568,0.383,0.134,9.491
200628,0.019,0.019,10.218
200687,0.757,0.46,9.902
200747,0.785,0.441,9.96
200808,0.163,0.239,9.615
200867,0.124,0.354,10.008
200927,0.038,0.115,10.209
200987,0.096,-0.201,9.701
201048,0.326,-0.029,10.822
201108,0.067,0.488,9.539
201167,0.469,-0.057,10.391
201227,0.804,0.249,10.544
201287,0.345,0.278,9.491
201348,-0.211,-0.46,9.73
201407,0.651,0.192,9.414
201467,0.019,0.192,9.634
201527,-0.057,-0.23,9.242
201588,0.565,0.45,9.74
201643,0.565,0.46,9.539
201647,-0.287,0.46,9.539
201708,0.661,0.057,9.577
201764,0.613,0.527,9.692
201827,0.383,0.335,9.692
201887,0.163,0.508,10.094
201947,0.326,-0.01,9.634
202008,0.718,-0.019,9.673
202067,0.144,0.316,9.337
202127,0.546,-0.01,9.51
202187,0.383,0.163,8.897
202248,0.354,0.048,10.697
202307,0.642,0.124,9.835
202367,0.958,0.46,8.715
202428,0.211,0.115,8.859
202488,0.038,0.0,10.132
202547,0.785,-0.546,9.768
202607,0.69,0.048,10.64
202668,-0.105,-0.345,9.96
202727,0.575,-0.019,10.094
202783,0.575,0.124,9.424
202787,0.259,0.124,9.424
202854,0.22,0.077,10.247
202907,0.364,0.287,8.734
202967,0.594,0.68,9.471
203027,0.278,0.077,10.439
203088,0.354,-0.172,9.749
203147,0.077,-0.057,10.084
203208,0.91,0.603,9.931
203268,-0.239,0.594,10.496
203323,-0.239,1.063,10.736
203327,0.153,1.063,10.736
203388,0.498,1.484,10.611
203447,0.249,1.848,10.956
203508,-0.086,2.193,10.515
203568,-0.105,2.394,9.261
203627,0.441,2.298,9.902
203688,-0.105,2.959,9.864
203747,0.124,1.992,9.347
203803,-0.498,2.394,8.753
203867,0.795,2.413,9.012
203927,-0.23,2.174,8.734
203987,0.077,2.241,8.207
204047,0.469,2.816,8.782
204108,-0.239,2.442,8.945
204168,-0.124,2.825,8.715
204228,0.22,3.16,9.539
204288,-0.048,3.017,8.313
204348,0.019,2.72,8.294
204408,0.163,2.682,9.203
204468,-0.469,2.691,9.979
204528,-0.335,2.471,8.772
204587,-0.192,2.413,8.926
204647,-0.632,2.174,9.088
204707,-0.278,2.231,9.74
204767,-0.345,2.327,8.897
204828,-0.431,2.806,9.155
204887,-0.048,2.471,10.151
204948,-0.326,2.624,9.443
205008,-0.508,3.007,9.634
205067,-0.498,2.921,9.787
205127,-0.383,2.519,10.065
205188,-0.508,2.72,11.147
205248,-0.057,2.557,9.922
205307,-0.268,3.017,9.136
205368,-0.45,2.662,9.615
205428,-0.211,2.643,9.902
205487,-0.412,2.682,9.471
205547,0.01,2.614,10.228
205607,-0.268,2.547,9.462
205663,-0.268,2.337,10.18
205668,-0.603,2.337,10.18
205727,-0.172,2.423,10.812
205788,0.01,2.394,9.462
205847,-0.086,2.107,9.864
205908,-0.958,1.609,9.941
205968,-0.124,2.097,10.611
206027,-0.172,1.867,9.328
206088,-0.527,1.398,9.242
206147,-0.441,1.848,10.171
206207,-0.536,1.714,9.998
206268,-0.172,1.81,8.859
206327,0.402,1.111,12.076
206388,-0.029,0.421,11.004
206443,-0.029,0.393,11.463
206447,0.019,0.393,11.463
206507,0.057,1.389,11.186
206568,-0.555,0.718,9.366
206627,-0.479,0.852,10.467
206688,0.029,0.757,9.299
206747,-0.69,1.101,9.874
206807,0.46,0.642,9.424
206867,-0.642,0.766,9.069
206928,-0.077,0.69,9.749
206988,-0.536,0.661,9.807
207047,-0.259,0.862,9.615
207107,-0.22,0.441,9.692
207167,-0.096,0.402,9.558
207228,-0.517,0.613,9.807
207287,0.536,0.297,10.238
207347,-0.46,0.163,10.467
207407,-0.326,0.354,9.625
207467,0.278,0.747,9.28
207528,-0.134,1.082,10.611
207587,-0.239,0.613,9.079
207647,-0.412,0.431,10.266
207708,-0.048,0.69,9.826
207767,-0.345,0.239,10.314
207818,0.144,0.766,9.596
207887,-0.163,0.718,9.242
207948,0.057,0.852,10.602
208008,-0.192,0.594,9.96
208067,-0.498,0.766,9.414
208128,-0.22,0.345,8.868
208188,-0.23,0.546,8.619
208243,0.029,0.067,9.653
208307,0.603,0.144,10.669
208367,0.239,0.144,9.452
208428,-0.038,0.613,8.408
208488,-0.134,0.517,10.266
208547,0.201,0.517,9.893
208607,-0.249,0.651,9.213
208668,0.105,0.077,10.305
208723,-0.335,-0.029,10.056
208783,0.153,0.249,9.606
208847,0.326,0.757,10.027
208908,-0.096,0.096,10.381
208967,-0.393,0.737,8.839
209028,0.144,1.178,9.337
209087,-0.393,0.517,9.586
209148,-0.354,0.469,9.165
209203,0.536,0.239,9.548
209268,-0.46,0.46,9.922
209328,-0.172,0.163,10.343
209387,-0.038,0.785,10.257
209447,0.192,0.517,9.443
209507,0.958,0.182,9.941
209567,-0.431,0.306,10.774
209627,0.057,0.354,9.711
209688,0.421,0.354,10.065
209745,-0.22,0.22,9.615
209807,0.383,0.441,9.692
209867,0.22,0.431,9.807
209928,0.517,0.086,9.778
209987,-0.306,0.306,10.084
210047,-0.077,0.603,9.931
210107,0.354,0.9,8.906
210168,-0.421,0.68,9.261
210228,0.0,0.622,10.276
210283,0.0,0.622,10.908
210288,0.594,0.517,10.908
210348,-0.086,0.316,9.845
210408,0.23,0.057,10.343
210467,-0.163,0.115,8.763
210528,0.201,0.354,9.893
210587,-0.316,0.776,9.922
210647,-0.211,1.006,9.175
210707,0.278,0.603,10.898
210768,-0.201,0.603,8.859
210833,0.211,0.201,9.098
210887,0.268,0.776,9.519
210948,-0.335,0.498,10.429
211008,0.057,0.69,10.113
211067,-0.22,0.508,10.008
211128,0.69,0.584,10.391
211188,-0.153,0.833,10.266
211247,-0.297,0.096,10.056
211308,0.067,-0.115,10.065
211368,0.278,0.268,9.682
211428,0.23,0.498,10.113
211483,0.412,0.441,10.104
211543,-0.057,-0.01,8.83
211603,0.268,0.479,10.027
211667,-0.153,0.297,10.573
211728,-0.038,0.508,10.353
211788,0.192,0.134,9.74
211847,-0.115,0.919,10.008
211908,-0.163,0.622,10.113
211967,0.01,1.006,9.136
212028,-0.239,0.278,9.337
212087,-0.134,-0.067,8.638
212147,-0.105,0.211,9.548
212207,-0.01,0.862,9.969
212267,0.077,0.393,9.5
212327,-0.373,1.571,8.159
212383,-0.373,0.728,7.623
212387,-0.306,0.728,7.623
212447,0.0,0.603,10.305
212503,0.354,0.22,10.64
212567,-0.029,0.278,10.238
212627,-0.096,0.077,9.711
212688,-0.249,0.594,9.021
212748,-0.077,0.335,8.782
212808,0.69,0.766,10.726
212868,-0.038,0.508,10.113
212928,-0.01,0.469,9.021
212987,0.536,0.105,10.851
213048,-0.153,0.46,11.368
213108,-0.603,0.306,8.83
213168,0.287,0.575,8.724
213228,0.278,0.527,9.692
213288,0.115,0.172,10.544
213347,0.843,0.23,10.429
213408,-0.69,0.306,8.792
213467,-0.096,0.565,9.663
213528,0.642,0.757,10.64
213587,-0.086,0.192,9.203
213648,0.01,0.115,9.385
213707,0.555,0.278,10.257
213768,0.728,0.345,10.41
213827,0.469,0.211,10.467
213888,0.124,0.757,10.008
213947,-0.23,0.517,9.835
214008,0.153,0.46,10.094
214068,-0.057,0.067,11.013
214128,-0.326,0.192,9.357
214188,0.192,0.306,10.027
214248,0.642,0.144,10.554
214308,-0.575,0.345,9.634
214368,0.029,0.393,10.649
214427,0.124,0.278,10.305
214488,0.182,0.498,9.385
214547,0.488,0.508,10.056
214607,-0.345,0.441,9.462
214667,0.584,0.824,10.046
214727,0.498,-0.105,11.224
214788,-0.124,0.278,9.481
214848,0.239,0.469,11.214
214903,0.019,0.517,10.477
214968,0.565,0.622,9.194
215027,-0.192,0.105,9.175
215087,0.22,0.402,9.5
215148,0.019,0.182,9.902
215207,-0.163,0.402,8.849
215267,0.939,0.134,10.477
215328,-0.048,0.259,9.041
215388,0.824,0.421,9.874
215447,0.134,0.077,9.606
215507,0.718,0.211,9.491
215568,0.239,0.172,9.931
215628,0.527,0.469,9.922
215687,0.699,0.057,9.644
215747,0.45,0.306,10.783
215803,0.45,0.479,11.243
215808,0.124,0.479,11.243
215868,0.364,0.479,10.142
215927,0.661,0.699,11.214
215988,0.268,0.057,10.104
216048,0.479,0.0,9.989
216107,0.163,0.919,9.222
216167,0.584,0.575,9.941
216228,0.555,0.527,10.171
216287,0.211,-0.594,7.738
216347,0.019,0.46,9.031
216403,1.207,0.498,10.104
216468,1.063,0.144,9.72
216528,0.948,0.46,9.902
216587,0.488,0.421,9.989
216647,0.268,0.144,10.793
216703,0.412,0.326,9.673
216767,-0.019,-0.153,9.021
216827,0.833,0.067,8.361
216887,0.967,0.364,9.673
216948,0.824,0.565,10.285
217007,0.747,0.259,10.132
217067,0.555,0.441,10.42
217128,0.862,-0.211,9.826
217187,0.527,0.029,10.343
217247,1.149,-0.057,9.558
217308,0.316,0.259,11.157
217367,0.345,0.029,9.826
217428,0.996,0.326,9.519
217488,1.073,0.077,9.989
217548,0.335,-0.134,11.31
217607,0.153,-0.048,10.659
217662,0.153,0.124,9.673
217667,0.776,0.124,9.673
217727,0.517,0.048,9.768
217788,0.268,-0.086,10.439
217848,0.172,0.393,10.621
217908,0.508,-0.182,9.28
217968,0.393,0.393,9.931
218028,0.555,-0.115,10.42
218087,0.584,0.201,9.874
218148,0.747,0.536,9.72
218208,0.287,0.077,9.979
218268,0.661,0.45,8.954
218327,0.488,-0.182,10.142
218387,0.555,0.22,11.214
218447,0.613,-0.345,9.759
218503,0.613,-0.096,9.577
218507,0.996,-0.096,9.577
218567,0.699,-0.057,11.349
218623,0.402,-0.105,9.136
218687,0.517,-0.105,10.678
218745,0.699,0.124,9.644
218807,0.766,-0.057,10.898
218867,0.603,0.0,9.893
218928,1.025,0.259,8.696
218988,0.584,-0.201,9.404
219048,0.326,-0.373,11.042
219107,0.163,-0.421,10.209
219168,0.747,-0.651,9.807
219228,0.306,-1.111,9.96
219288,0.019,-0.441,9.807
219347,0.46,-0.996,11.368
219408,0.737,-1.073,10.429
219468,0.69,-1.159,9.701
219527,-0.038,-0.594,9.299
219588,0.46,-0.814,9.567
219648,0.239,-0.862,8.571
219707,1.197,-0.919,8.389
219767,0.23,-1.226,9.548
219838,0.565,-1.542,10.736
219907,0.757,-1.829,10.065
219967,0.613,-1.657,9.108
220027,0.335,-2.155,7.298
220088,0.67,-1.724,10.209
220148,0.795,-1.973,9.969
220203,0.536,-2.097,9.883
220267,0.488,-2.184,9.634
220327,0.019,-2.116,9.941
220383,0.019,-2.116,10.525
220387,-0.086,-2.174,10.525
220448,0.958,-2.346,10.889
220508,0.412,-2.164,9.787
220568,0.019,-2.452,8.983
220628,-0.115,-2.241,10.027
220687,0.728,-2.634,10.927
220747,0.048,-2.863,10.918
220807,0.144,-3.055,10.592
220868,0.642,-1.935,12.402
220927,-0.795,-3.812,4.693
220988,0.699,-2.155,9.328
221047,-1.025,0.45,10.19
221108,0.364,-2.959,7.432
221168,0.651,-3.256,10.41
221228,0.297,-3.764,8.226
221288,0.364,-3.361,9.567
221347,-0.546,-3.065,9.117
221408,0.239,-2.605,9.931
221468,-0.268,-3.17,9.05
221527,0.22,-2.567,10.257
221583,-0.259,-2.48,10.295
221648,0.23,-2.404,9.424
221707,-0.546,-2.298,9.74
221768,0.057,-2.423,9.462
221841,0.354,-1.973,10.448
221907,-0.431,-1.733,10.736
221963,-0.192,-1.417,9.577
222028,-0.326,-1.369,9.28
222087,-0.622,-1.341,9.079
222147,0.192,-0.986,9.778
222203,0.192,-0.69,9.117
222208,-0.326,-0.69,9.117
222267,0.239,-0.766,10.707
222327,-0.259,-0.546,9.481
222388,-0.306,-0.517,9.615
222443,0.115,-0.67,10.898
222508,-0.642,-0.517,9.318
222568,0.259,-0.287,10.065
222627,-0.364,-0.163,8.648
222687,0.354,-0.096,7.891
222748,0.402,0.01,9.261
222807,0.239,-0.479,8.437
222867,-0.086,-0.431,9.759
222927,0.067,-0.364,9.041
222988,0.306,-0.048,10.075
223047,0.431,-0.153,10.554
223107,0.68,-0.105,10.008
223168,0.661,-0.057,9.471
223227,0.345,-0.23,9.519
223288,0.153,-0.431,9.922
223347,0.259,-0.153,9.759
223407,0.517,-0.259,9.462
223463,0.134,0.642,9.548
223527,0.421,0.287,8.973
223587,0.249,0.9,11.214
223647,0.757,0.536,8.839
223708,1.609,0.508,11.961
223767,1.561,0.105,8.878
223828,0.555,-0.096,9.883
223888,0.096,0.939,11.818
223947,1.398,0.613,9.127
224007,0.824,1.044,10.266
224067,0.124,0.124,10.353
224128,0.124,1.504,7.786
224188,0.402,0.91,9.031
224248,1.36,-1.034,9.586
224308,1.274,0.0,8.954
224367,0.268,0.67,10.515
224427,0.795,1.369,9.127
224488,0.603,1.149,10.889
224548,1.312,0.929,9.567
224608,0.939,1.197,10.831
224668,0.441,0.977,9.759
224727,0.115,0.939,9.491
224788,0.46,0.268,10.161
224848,0.182,0.814,11.301
224907,1.092,0.776,10.477
224967,0.469,0.833,9.318
225027,0.153,0.201,8.274
225087,-0.057,1.417,9.634
225143,0.508,1.647,10.534
225208,0.498,1.417,11.492
225267,0.584,1.369,9.117
225328,0.555,2.155,9.902
225387,0.124,1.178,10.851
225447,0.268,1.523,10.448
225507,-0.038,1.714,9.012
225568,1.159,1.427,9.213
225627,0.642,1.417,10.056
225688,0.699,1.513,10.918
225747,0.68,2.145,9.845
225820,0.402,1.666,9.922
225867,0.91,1.858,9.701
225927,0.555,2.126,10.477
225988,0.345,2.002,11.339
226048,0.249,2.365,9.404
226108,0.67,2.768,9.577
226168,0.747,2.164,11.674
226228,0.172,1.944,9.529
226283,0.038,2.988,8.734
226347,0.259,2.442,8.686
226408,0.603,1.484,9.175
226467,0.919,2.04,9.95
226528,0.919,2.576,9.969
226583,1.159,2.375,10.036
226648,0.46,2.49,11.473
226707,0.268,2.327,9.922
226762,0.613,2.519,11.157
226842,0.297,2.777,10.171
226907,-0.278,2.04,10.324
226967,0.843,3.112,9.251
227023,0.565,2.576,10.41
227087,0.709,1.791,10.056
227148,0.737,1.925,10.362
227208,0.287,1.839,10.755
227267,0.105,1.695,7.556
227327,0.019,1.446,9.443
227388,0.182,2.088,10.238
227447,-0.393,0.967,8.073
227507,0.747,1.82,9.922
227567,0.709,2.662,10.228
227627,0.651,2.069,8.6
227687,0.45,1.274,8.993
227747,0.23,1.762,9.471
227822,0.594,2.433,9.826
227883,0.393,1.829,9.519
227947,0.555,1.159,11.396
228008,0.019,2.069,9.328
228068,-0.565,2.069,9.864
228128,-0.038,2.318,8.303
228187,0.622,2.739,10.688
228247,0.402,1.915,9.816
228308,0.335,2.394,10.678
228367,0.594,2.749,10.707
228427,0.306,2.509,9.673
228488,0.249,2.863,10.257
228548,0.144,2.796,8.801
228608,0.029,2.777,8.514
228667,-0.182,2.739,8.408
228723,-0.153,2.279,8.897
228788,0.709,1.628,9.51
228840,0.508,2.203,10.621
228907,0.23,1.829,10.736
228968,0.785,2.002,10.238
229027,0.613,2.768,10.86
229087,0.306,2.586,10.688
229148,0.316,2.375,10.726
229203,0.029,2.768,9.807
229268,-0.259,2.911,9.72
229327,-0.144,2.346,9.845
229388,-0.575,2.078,8.878
229447,0.067,2.049,9.318
229507,0.096,2.174,9.347
229567,0.105,2.136,9.385
229627,0.316,2.452,10.544
229687,0.814,2.528,10.075
229747,-0.661,2.337,9.615
229808,0.144,2.998,10.592
229867,-0.086,1.848,10.965
229927,0.469,2.279,11.406
229987,1.13,2.844,11.837
230048,0.105,2.452,12.325
230108,1.12,2.308,9.749
230167,1.504,2.49,9.855
230227,0.986,2.624,11.186
230287,-0.91,2.634,11.981
230347,0.613,2.136,8.581
230407,0.728,2.203,9.797
230467,0.259,1.81,10.353
230527,0.0,1.925,8.198
230588,0.517,1.666,9.117
230647,0.661,1.312,8.562
230703,-0.048,2.107,11.588
230767,-2.136,0.843,9.787
230828,0.268,1.063,8.179
230888,0.613,1.666,7.633
230947,0.776,0.69,8.562
231007,-1.006,0.029,9.586
231068,0.584,1.207,9.366
231127,1.111,1.369,9.318
231187,0.019,0.479,10.937
231247,1.044,0.939,9.816
231308,-0.029,0.383,10.898
231368,-0.019,0.057,8.715
231428,-0.843,-0.105,8.265
231488,-0.709,-0.469,11.138
231548,1.369,0.153,10.64
231608,0.144,-0.23,8.533
231668,0.68,0.536,10.065
231728,0.0,1.025,11.004
231788,-0.316,-0.239,10.707
231847,-0.967,-0.124,9.452
231907,-0.45,1.14,9.567
231968,-0.297,0.575,10.113
232028,-0.354,0.144,8.456
232088,-0.546,1.015,9.452
232148,-0.536,0.498,10.065
232207,-0.163,0.728,7.949
232267,-0.316,0.785,10.295
232328,-0.891,0.709,8.916
232387,-0.488,0.23,9.778
232447,0.68,0.862,8.916
232507,-0.757,0.996,11.454
232567,-0.757,-0.038,10.716
232628,-1.714,0.852,12.048
232687,-0.508,0.555,10.783
232747,-0.134,0.297,10.333
232807,0.622,-0.163,9.567
232867,-0.038,-0.182,11.923
232927,-0.785,0.393,11.732
232988,-0.029,0.105,9.606
233048,-0.153,-0.144,8.657
233108,0.527,0.373,9.443
233167,-0.517,0.249,9.902
233227,-0.393,-0.259,8.945
233288,-0.393,0.01,10.659
233347,0.067,0.555,11.406
233407,0.105,0.747,10.611
233468,-0.508,0.057,9.701
233527,-0.728,0.46,10.994
233588,-1.092,0.632,9.663
233648,-0.958,0.077,9.155
233708,-0.508,0.134,10.285
233767,-0.46,-0.105,9.73
233847,-0.201,-0.105,8.332
233907,-0.335,-0.124,9.175
233967,-0.172,-0.124,9.29
234028,-0.01,0.46,10.065
234088,-0.488,-0.019,9.069
234147,-0.728,-0.067,9.395
234211,-0.393,-0.048,10.755
234267,-0.077,0.077,9.874
234327,-0.431,-0.144,10.199
234387,-0.431,-0.086,10.305
234448,-0.757,0.048,10.467
234507,-0.469,-0.259,10.142
234567,-0.335,-0.153,10.506
234627,-0.268,0.182,10.544
234687,0.01,-0.048,10.496
234742,-0.077,-0.105,10.515
234808,-0.354,-0.326,9.127
234868,-1.044,0.594,9.328
234927,-0.306,0.479,10.831
234987,-0.661,-0.239,10.946
235048,-0.565,0.086,10.372
235107,-0.939,-0.278,10.525
235167,-0.68,-0.421,10.448
235227,-0.986,-0.718,10.343
235287,-0.575,-0.249,9.567
235347,-0.45,-0.326,10.736
235408,-0.479,-0.804,10.027
235467,-0.699,-0.469,9.28
235527,-0.498,0.268,10.046
235587,-0.086,-0.335,10.218
235647,-0.144,-0.364,9.615
235708,-1.101,-0.163,8.475
235763,-1.073,-0.469,8.198
235840,-0.383,-0.412,8.399
235888,0.01,-0.498,8.839
235947,-0.431,-0.68,9.328
236007,-0.986,-0.048,8.495
236067,-0.661,0.211,9.251
236127,-0.249,0.259,8.61
236187,-0.345,0.163,11.023
236248,-0.22,-0.105,11.128
236307,0.029,-0.115,11.942
236367,-0.479,-0.594,11.224
236423,-0.211,0.862,11.032
236487,-0.517,0.948,10.41
236548,-0.23,1.417,10.008
236607,0.23,0.622,10.314
236668,-0.086,0.824,9.433
236727,-0.613,0.737,9.28
236787,-0.316,0.45,10.008
236847,-0.383,0.201,10.889
236903,-0.402,0.259,10.295
236967,-0.393,0.498,8.523
237027,-0.278,0.833,9.586
237087,-0.029,0.278,9.395
237147,-1.188,0.278,8.657
237208,0.019,1.58,8.686
237267,-2.988,2.404,11.55
237328,0.488,0.871,10.046
237387,1.714,0.862,9.835
237447,0.412,0.546,9.337
237503,0.412,0.077,9.558
237508,0.048,0.077,9.558
237568,0.01,0.364,10.017
237628,0.642,0.996,10.084
237687,0.814,0.622,11.32
237742,1.264,0.881,9.73
237820,0.383,0.575,11.569
237884,0.182,0.555,8.849
237947,0.651,0.402,9.692
238008,0.354,1.063,11.147
238067,0.728,0.833,9.567
238127,0.881,1.082,9.462
238187,0.469,0.124,10.266
238247,1.101,-0.431,8.677
238308,1.427,0.469,9.108
238367,1.264,0.488,11.109
238427,0.316,0.469,10.094
238487,1.092,0.824,8.887
238547,0.124,0.709,10.4
238608,1.235,0.316,8.849
238668,0.824,0.393,10.266
238728,0.565,0.737,9.28
238789,0.431,0.22,11.109
238858,0.517,0.393,11.071
238927,0.527,0.211,9.855
238987,0.441,0.517,11.377
239047,0.996,0.718,8.514
239107,0.412,0.182,11.186
239167,0.785,0.929,7.91
239227,0.69,0.68,10.688
239287,0.919,0.776,8.983
239347,0.441,0.45,10.209
239407,0.785,-0.268,8.964
239467,0.555,0.326,8.887
239527,0.172,0.01,9.673
239587,0.737,0.69,9.826
239647,0.364,0.594,9.184
239707,0.575,0.105,10.755
239767,0.431,0.345,9.031
239827,0.642,0.402,11.358
239888,0.852,0.46,10.592
239948,1.207,0.441,9.606
240007,0.584,0.546,11.042
240067,0.871,0.632,9.653
240128,0.977,0.354,10.812
240188,1.274,0.584,8.485
240247,1.293,0.22,9.74
240307,1.006,0.776,9.941
240368,1.235,0.192,8.562
240427,1.762,0.402,9.51
240488,1.255,0.192,11.521
240547,1.8,0.144,8.897
240607,1.159,0.517,9.318
240668,1.283,0.622,9.931
240728,1.743,0.431,9.682
240787,2.002,0.421,9.404
240847,0.91,0.335,11.08
240908,1.59,0.297,10.171
240967,1.992,-0.048,10.333
241027,2.394,-0.508,10.793
241087,1.8,-0.45,9.175
241148,1.915,-0.575,9.117
241207,2.164,-0.555,8.677
241267,1.609,-0.555,9.998
241327,1.686,-0.488,10.238
241388,1.762,-0.326,9.414
241447,1.867,-0.402,10.113
241508,2.365,-0.249,9.433
241563,3.658,0.46,12.21
241627,1.628,0.038,10.209
241688,1.417,-0.508,8.667
241747,1.398,-0.249,10.017
241813,1.331,-0.584,9.874
241887,2.413,-0.172,8.878
241947,2.701,-0.249,8.562
242008,2.461,-0.661,11.435
242067,3.045,-0.814,8.351
242127,2.48,-0.546,10.027
242187,2.423,-0.067,9.337
242247,2.433,0.192,8.916
242307,2.614,-1.015,9.73
242368,2.624,-1.082,9.72
242428,2.107,-0.632,10.41
242488,2.078,-0.297,8.715
242547,2.212,-0.383,9.318
242607,2.394,-0.412,10.534
242667,2.155,-1.188,10.429
242727,2.595,-1.389,9.864
242787,2.768,-1.159,10.228
242848,3.045,-1.906,8.59
242907,3.074,-0.852,9.797
242967,2.883,-1.168,9.567
243027,2.72,-1.14,9.922
243087,2.701,-1.245,8.993
243147,2.911,-0.709,9.452
243207,2.72,-1.149,9.74
243267,2.998,-1.35,9.845
243328,2.883,-1.331,10.707
243387,2.634,-1.322,9.797
243448,2.567,-1.226,9.337
243507,1.973,-1.245,9.701
243567,2.356,-1.283,10.238
243627,1.935,-1.025,10.228
243687,2.174,-1.159,9.155
243747,1.676,-1.513,9.05
243818,1.944,-1.551,9.127
243887,1.628,-1.283,9.424
243948,1.647,-1.887,9.95
244008,1.207,-1.379,9.491
244067,1.063,-1.915,9.663
244127,1.073,-2.538,9.797
244187,0.757,-2.011,10.42
244247,0.843,-2.26,10.276
244307,1.437,-0.891,9.251
244368,1.686,-2.164,9.893
244428,1.896,-1.293,9.989
244487,1.082,-2.691,9.117
244548,1.743,-2.289,10.764
244608,-0.067,-1.935,9.835
244667,-0.862,-2.614,9.835
244728,1.255,-1.475,9.845
244783,1.255,-2.27,8.782
244787,0.919,-2.27,8.782
244847,0.814,-2.576,10.726
244908,0.594,-2.231,10.611
244967,0.316,-1.887,9.433
245025,0.69,-1.647,10.496
245088,0.115,-1.532,10.046
245147,0.479,-1.867,10.496
245207,0.316,-1.36,10.64
245267,0.211,-0.891,9.376
245328,0.201,-0.785,9.615
245383,0.201,-0.939,10.391
245388,0.632,-0.939,10.391
245443,-0.077,-0.718,9.845
245507,0.431,-1.877,9.347
245567,2.653,1.829,12.632
245627,1.034,2.107,10.745
245687,0.048,1.609,10.87
245748,-0.163,1.762,8.322
245819,1.13,-0.029,9.261
245867,-0.565,1.925,10.879
245924,0.469,2.624,9.807
245987,0.651,2.902,9.653
246047,0.46,3.534,9.05
246108,0.565,2.567,10.764
246168,0.603,3.084,9.778
246223,-0.182,3.572,10.285
246288,0.326,3.275,10.046
246348,0.441,3.907,10.879
246407,0.479,4.52,9.989
246468,0.699,4.444,10.563
246527,0.393,4.329,10.649
246588,0.287,4.357,10.199
246647,0.038,4.673,8.619
246707,-0.067,4.405,8.657
246767,-0.91,3.687,8.916
246828,-0.239,4.271,10.017
246887,-0.709,4.31,9.136
246947,-1.331,4.204,7.977
247003,-0.412,4.3,9.807
247068,-0.9,4.156,8.724
247128,-1.111,4.367,8.983
247187,-0.259,3.869,8.897
247247,-0.651,3.725,9.644
247308,-0.948,4.262,9.146
247367,-1.274,4.424,9.117
247427,-0.814,4.051,10.008
247487,-0.699,4.051,11.176
247548,-0.402,3.831,10.908
247607,-0.546,3.524,10.889
247668,-0.536,3.333,10.257
247724,-0.584,3.716,10.343
247787,-1.111,3.505,10.429
247848,-1.12,3.074,11.349
247907,-1.159,2.538,11.636
247967,-1.551,2.519,11.578
248027,-1.073,2.298,10.621
248088,-1.417,1.705,11.492
248147,-1.571,1.475,12.239
248203,-1.571,0.479,11.492
248207,-1.264,0.479,11.492
248268,-1.35,-0.163,11.732
248330,-1.149,-0.584,10.946
248387,-1.494,-0.278,11.147
248447,-1.571,-0.316,10.084
248507,-2.164,-0.479,10.515
248567,-2.222,-1.264,10.592
248628,-2.136,-1.149,10.573
248688,-1.695,-1.159,9.749
248747,-1.417,0.115,9.203
248808,-1.073,-0.632,9.787
248863,-0.613,-0.354,12.373
248927,-0.632,-2.71,13.369
248987,-1.437,-1.973,11.454
249048,-2.203,-1.465,9.73
249108,-2.241,-0.862,8.763
249167,-1.513,-1.523,9.443
249227,-1.618,-1.398,10.391
249288,-0.824,-1.446,9.807
249347,-1.159,-1.686,9.539
249408,-1.446,-1.149,9.299
249468,-0.757,-1.053,9.376
249528,-1.484,-1.417,9.443
249587,-3.448,-1.733,8.562
249647,-1.379,-2.107,7.049
249707,-2.059,-1.695,10.41
249768,-0.575,-1.523,10.918
249828,-1.216,-1.235,11.368
249888,-1.532,-2.049,9.127
249947,-1.255,-0.393,9.433
250008,-1.887,-0.862,10.017
250068,-2.251,-1.188,9.462
250127,-1.159,-0.67,9.778
250188,-1.705,-0.9,9.5
250247,-1.532,-0.69,9.893
250307,-1.475,-1.322,10.257
250363,-1.149,-0.891,10.573
250427,-2.452,-1.437,9.586
250488,-1.274,-0.737,9.883
250548,-1.504,-0.795,8.83
250608,-2.394,-1.13,9.998
250668,-1.408,-0.345,10.132
250727,-1.867,-1.369,9.989
250783,-1.867,-1.101,10.324
250787,-2.5,-1.101,10.324
250847,-2.231,-0.766,9.931
250907,-1.446,-0.105,9.309
250968,-1.954,-0.594,9.165
251027,-1.465,-0.163,9.337
251087,-2.011,-1.168,9.73
251147,-1.877,-0.747,8.973
251207,-1.197,-0.622,8.897
251268,-2.03,-0.661,9.041
251328,-1.264,-1.532,9.529
251387,-1.867,-0.91,9.73
251447,-1.666,-1.015,10.075
251508,-0.584,-0.651,11.186
251567,-1.753,-0.747,10.19
251627,-1.542,-0.354,10.63
251688,-1.628,-0.508,10.276
251747,-4.032,-2.164,8.466
251810,-1.207,-0.881,8.648
251868,-1.743,-0.134,8.399
251927,-2.595,-0.335,8.543
251988,-2.155,-0.45,7.202
252048,-1.35,-1.341,7.163
252107,-1.695,-0.23,9.529
252168,-1.839,-0.757,8.14
252227,-1.073,-0.508,9.931
252287,-0.469,-0.871,9.835
252347,-2.682,-1.188,9.433
252407,-0.728,-1.283,10.209
252467,-2.212,-0.144,8.849
252523,-2.212,-0.345,8.016
252527,-2.116,-0.345,8.016
252588,-2.605,0.096,9.615
252648,-1.168,-1.475,8.792
252708,-1.887,-1.676,9.96
252767,-2.126,0.297,10.266
252845,-1.446,-0.048,7.652
252907,-0.881,-0.996,8.447
252968,-1.111,-0.335,10.554
253027,-1.484,-1.149,9.424
253083,-0.718,-0.46,11.061
253148,-1.532,-0.69,10.41
253207,-1.714,-0.91,9.893
253268,-1.628,-0.383,9.548
253328,-1.686,-0.728,8.121
253387,-1.791,-0.383,8.945
253448,-1.982,-0.421,9.902
253507,-1.877,-0.259,8.341
253567,-1.35,-0.306,8.332
253627,-2.461,-0.45,8.993
253688,-1.35,-0.163,9.165
253748,-2.184,-1.034,11.665
253808,-1.456,-0.584,10.803
253867,-1.389,0.057,10.544
253928,-1.877,-0.22,9.855
253988,-0.939,-0.555,10.544
254047,-1.446,-0.555,10.247
254107,-2.519,-0.249,8.667
254167,-1.427,-0.105,10.324
254223,-1.935,-0.192,9.845
254283,-1.935,-0.603,10.314
254288,-1.14,-0.603,10.314
254347,-1.14,-0.69,10.199
254408,-1.417,-0.364,10.238
254467,-1.475,0.287,9.998
254528,-1.638,-0.182,10.065
254588,-1.551,-0.517,10.774
254648,-1.609,-1.006,10.027
254707,-1.82,-0.69,9.347
254768,-1.753,-0.297,9.96
254833,-1.944,-0.488,9.471
254888,-1.082,-0.613,10.755
254947,-0.795,-0.278,9.433
255007,-1.36,-0.373,9.625
255068,-1.906,-0.153,8.859
255128,-2.116,-0.297,8.753
255187,-1.216,-0.373,10.506
255247,-1.523,0.306,9.835
255308,-1.063,0.048,9.491
255368,-1.906,0.278,9.749
255427,-2.059,-0.096,8.782
255487,-1.705,-0.077,9.347
255547,-1.188,-0.335,10.64
255607,-1.216,-0.393,10.036
255668,-1.264,0.029,9.242
255723,-1.264,0.326,9.548
255727,-1.705,0.326,9.548
255788,-1.427,0.622,9.433
255845,-1.207,0.967,8.954
255907,-1.571,0.393,9.414
255967,-1.676,0.67,9.653
256028,-1.561,0.335,10.094
256087,-1.322,0.824,10.774
256147,-1.542,0.68,10.697
256208,-1.446,1.015,10.697
256267,-1.542,0.354,9.74
256328,-1.781,-0.153,9.184
256387,-1.686,-0.019,9.175
256447,-1.484,0.01,9.682
256508,-1.724,-0.163,8.887
256568,-1.475,-0.469,8.801
256628,-1.695,-0.575,8.552
256683,-1.887,-0.852,9.462
256747,-0.546,-0.383,9.127
256810,-1.427,0.201,9.184
256867,-1.772,0.268,10.228
256927,-1.331,-0.038,10.458
256983,-1.331,0.019,8.772
256987,-1.255,0.019,8.772
257048,-1.149,0.153,9.462
257108,-1.417,-0.584,10.036
257168,-1.59,-0.306,10.094
257228,-1.571,0.192,8.887
257288,-1.743,-0.096,10.075
257347,-1.887,-0.077,9.443
257408,-1.417,0.105,9.414
257468,-1.456,0.306,9.72
257528,-1.484,0.0,9.797
257588,-1.599,-0.048,9.807
257648,-1.724,0.172,8.993
257707,-2.002,0.431,9.692
257767,-1.341,0.077,9.309
257826,-1.446,0.412,9.596
257888,-1.312,0.45,8.657
257948,-1.791,0.172,9.998
258007,-1.475,0.402,9.194
258068,-1.006,0.613,9.874
258128,-1.226,0.632,9.567
258187,-1.81,0.622,10.036
258247,-0.986,0.632,9.969
258307,-1.724,1.044,9.759
258368,-1.35,0.67,9.644
258428,-1.571,0.555,9.433
258488,-1.484,0.46,8.849
258548,-0.948,1.705,10.573
258608,-1.867,1.341,9.759
258667,-1.647,1.188,12.009
258723,-0.316,1.398,10.18
258787,-2.107,2.059,10.18
258847,-1.369,1.839,7.585
258907,-0.958,1.484,9.692
258968,-1.188,1.053,9.06
259027,-1.657,1.369,9.175
259088,-1.475,1.456,9.701
259147,-1.216,0.766,9.864
259208,-1.551,1.015,10.429
259267,-1.226,1.149,10.764
259327,-1.389,0.967,10.563
259388,-0.862,1.073,9.73
259443,-1.36,1.312,10.697
259507,-1.609,0.766,9.912
259567,-0.824,0.757,10.008
259628,-1.599,0.757,9.328
259688,-1.408,1.025,9.108
259743,-1.245,1.006,9.376
259807,-1.369,0.575,9.309
259867,-0.833,1.178,9.922
259927,-1.762,0.508,9.787
259987,-1.178,0.996,9.395
260047,-1.149,0.785,9.835
260107,-1.963,0.488,8.724
260163,-1.963,0.153,10.218
260167,-1.561,0.153,10.218
260228,-1.36,0.431,9.002
260288,-1.379,0.393,10.324
260347,-1.657,0.555,8.064
260408,-0.737,1.034,9.673
260467,-1.149,0.603,8.313
260527,-1.092,0.833,10.266
260587,-1.781,0.412,8.657
260647,-1.274,0.373,9.529
260708,-1.168,-0.22,10.18
260768,-1.686,0.335,10.946
260823,-1.686,0.134,10.151
260827,-1.35,0.134,10.151
260887,-1.599,-0.383,10.487
260948,-0.421,-0.048,9.673
261007,-1.657,0.287,10.774
261067,-2.251,0.096,9.27
261128,-1.427,0.287,10.688
261187,-1.274,1.015,9.395
261247,-1.437,0.91,9.414
261308,-1.523,0.383,9.175
261368,-1.427,0.469,8.926
261428,-1.331,1.082,10.305
261488,-1.101,0.699,10.86
261547,-0.804,0.584,11.291
261608,-1.513,-0.105,10.755
261668,-1.551,0.057,9.902
261728,-1.226,1.283,9.27
261785,-1.015,1.532,9.28
261847,-1.264,0.795,9.922
261908,-1.551,0.345,9.012
261968,-2.021,-0.211,8.341
262027,-1.542,0.479,9.395
262087,-0.402,0.45,10.142
262147,-1.341,-0.057,9.194
262207,-1.839,-0.115,10.678
262267,-2.279,-0.105,9.835
262328,-1.475,-0.038,9.462
262388,-1.599,0.575,11.004
262448,-1.877,0.699,8.964
262507,-1.647,-1.025,9.529
262567,-1.609,-0.527,9.519
262628,-1.676,-0.555,8.926
262688,-1.255,-0.144,8.839
262748,-1.389,-0.354,9.845
262811,-0.766,0.297,9.922
262888,-1.561,-0.354,9.941
262947,-1.542,1.082,10.18
263008,-1.168,1.638,10.123
263068,-1.073,0.402,8.859
263127,-1.264,-0.757,8.504
263183,-1.8,0.986,7.987
263247,-1.733,0.249,9.136
263308,-0.737,-0.709,8.878
263367,-0.881,0.642,10.008
263428,-0.728,0.565,10.898
263488,-1.178,0.278,9.002
263548,-1.848,1.446,10.228
263603,-0.852,1.437,10.228
263667,-0.718,1.197,10.726
263728,-1.437,1.216,10.362
263788,-1.369,1.149,9.481
263848,-1.59,0.814,9.701
263907,-1.8,-0.517,8.437
263968,-1.274,0.153,9.481
264027,-1.063,-0.278,9.653
264088,-1.025,0.412,10.372
264147,-0.278,0.546,10.515
264208,-1.389,-0.038,10.467
264263,-1.389,0.182,10.812
264268,-0.259,0.182,10.812
264323,-0.259,-0.067,9.452
264327,-1.944,-0.067,9.452
264387,-1.944,0.124,9.318
264447,-2.308,0.431,8.514
264508,-1.542,-0.393,8.973
264567,-1.073,0.373,9.433
264628,-0.603,0.134,9.27
264687,-1.159,0.086,9.5
264743,-1.398,0.259,8.064
264803,-1.628,-0.057,9.117
264867,-1.647,-0.278,8.667
264928,-1.484,-0.747,9.931
264987,-1.302,-0.172,10.18
265047,-1.197,-0.239,9.28
265107,-1.408,0.239,9.395
265168,-0.919,0.124,9.893
265228,-1.618,-0.412,9.462
265287,-1.542,0.239,9.778
265347,-1.724,-0.057,8.638
265407,-1.714,-0.124,8.696
265468,-1.791,0.057,9.079
265523,-1.791,0.22,8.61
265527,-0.804,0.22,8.61
265588,-0.297,0.192,9.357
265647,-0.373,-0.115,9.002
265708,-0.804,0.69,10.353
265768,-1.197,0.536,9.51
265854,-1.331,-0.584,9.615
265928,0.019,0.153,8.188
265988,-1.216,0.278,9.72
266047,-1.408,-0.393,9.519
266107,-1.743,0.182,9.27
266168,-2.193,0.335,8.552
266227,-1.101,0.565,10.209
266287,-0.785,0.316,11.023
266347,-1.484,0.479,8.581
266407,-1.111,0.546,8.59
266467,-1.494,0.776,9.366
266528,-0.431,0.345,9.778
266587,-1.59,0.067,9.615
266648,-0.412,0.038,9.606
266708,-1.14,-0.316,9.778
266763,-1.504,0.077,9.299
266827,-1.456,0.163,9.653
266887,-0.651,0.153,7.192
266948,-0.958,0.891,8.073
267008,-0.824,0.412,8.82
267067,-1.14,0.431,10.266
267127,-1.073,0.402,9.318
267188,-1.753,0.019,8.456
267247,-1.006,0.383,9.29
267303,-1.35,0.134,10.247
267368,-0.9,0.326,9.376
267427,-0.862,0.613,10.218
267488,-1.542,0.077,9.347
267548,-1.073,0.421,9.855
267608,-1.082,0.977,9.213
267663,-0.986,0.632,9.069
267728,-0.728,-0.268,8.581
267783,-0.747,0.584,10.755
267849,-0.785,0.163,9.893
267907,-0.891,0.211,9.385
267968,-2.078,-0.211,9.864
268027,-1.408,0.891,8.38
268088,-1.283,0.632,10.209
268148,-0.862,-0.259,8.188
268207,-0.565,-0.402,9.079
268268,-1.331,-0.699,8.782
268323,-0.259,-0.67,9.424
268387,-1.025,-0.393,9.567
268443,-0.124,0.603,11.77
268507,-1.753,2.835,9.73
268568,-1.465,1.35,8.619
268627,0.0,0.067,6.311
268688,-2.796,-0.057,12.536
268747,-0.172,-0.393,8.523
268803,-1.762,0.124,5.813
268867,-0.326,-1.034,8.782
268927,-0.871,-0.977,8.906
268988,-0.354,0.192,10.918
269047,-0.622,0.469,10.295
269108,-1.686,0.508,9.5
269168,-1.312,0.067,10.736
269227,-0.958,0.776,9.357
269287,-1.149,0.278,9.701
269348,-1.906,0.335,10.372
269407,-1.274,-0.086,9.242
269468,-0.575,-0.096,8.792
269527,-0.757,0.268,10.458
269587,-0.824,0.01,9.548
269643,-1.484,-0.498,9.663
269708,-1.015,0.508,9.692
269767,-0.986,0.306,8.6
269833,-0.603,1.053,8.265
269907,-0.546,0.642,9.27
269967,-0.469,0.919,9.615
270027,-1.14,0.527,9.232
270087,-1.101,0.46,9.845
270143,-0.287,0.259,10.812
270207,0.153,0.201,10.42
270263,-0.278,0.364,8.284
270327,-0.45,-0.211,9.309
270387,-1.475,0.259,10.688
270448,-0.22,-0.086,8.466
270508,-1.781,0.134,7.843
270568,-0.45,0.766,8.064
270627,-1.216,0.412,9.989
270687,-0.259,-0.259,8.15
270748,-1.006,0.268,9.155
270803,-0.939,0.077,9.462
270867,-0.958,0.326,9.002
270928,-0.163,0.709,9.816
270987,-0.785,0.594,10.439
271047,-1.302,-0.019,9.72
271103,-1.216,0.373,9.203
271167,-1.159,0.393,8.724
271228,-0.699,0.249,10.42
271287,-1.197,0.393,9.778
271348,-0.728,0.153,9.404
271408,-1.523,-0.029,9.539
271468,-1.197,0.488,8.686
271527,-0.412,0.172,9.414
271583,-0.345,0.402,9.586
271647,-0.881,0.421,9.347
271707,-1.599,0.297,9.5
271767,-1.408,0.163,8.255
271827,-0.852,0.172,8.983
271887,-0.402,1.053,9.29
271948,-0.306,1.168,9.002
272007,-0.546,0.68,10.333
272068,-0.91,1.542,10.123
272128,-1.015,0.986,9.146
272187,-1.628,1.13,9.232
272247,-0.795,1.341,9.136
272303,-0.345,1.293,10.094
272368,-0.862,2.251,10.123
272428,-0.986,1.81,11.665
272483,-1.513,0.488,10.075
272547,-0.594,1.877,10.266
272607,-0.977,2.825,10.295
272668,-1.015,2.078,10.506
272727,-0.144,1.973,9.768
272788,-0.843,2.346,10.353
272847,-0.939,2.471,9.213
272907,-0.115,2.078,10.573
272967,-0.757,1.676,10.295
273027,-1.034,1.618,9.625
273087,-0.488,2.308,10.841
273147,-1.178,1.896,10.477
273208,-1.101,2.595,10.975
273263,-1.101,2.595,7.834
273267,-0.594,2.251,7.834
273328,-0.565,1.216,7.374
273383,-0.565,1.59,9.826
273388,-1.58,1.59,9.826
273448,-0.498,2.164,9.567
273507,-0.996,3.132,8.897
273567,-1.044,2.605,8.504
273627,-0.632,2.337,9.711
273687,-0.795,1.963,9.27
273747,-0.622,1.063,9.318
273807,-1.408,2.049,10.774
273868,-1.245,2.231,9.146
273927,-0.575,1.753,10.171
273988,-0.508,1.992,9.261
274047,-0.326,1.695,10.372
274108,-0.661,0.967,10.199
274167,-1.092,1.532,10.496
274227,-0.661,1.398,10.582
274287,-0.259,0.843,10.381
274348,-0.919,0.757,10.171
274408,-1.226,0.929,8.916
274467,-1.197,1.178,9.261
274528,-0.814,0.316,9.443
274588,-0.412,0.843,9.5
274647,-1.111,1.331,10.946
274708,-0.546,0.46,9.893
274768,-1.025,0.517,9.328
274832,-1.12,0.354,10.324
274907,-0.661,0.402,9.615
274967,-0.881,0.776,8.38
275027,-0.594,0.565,9.644
275087,-0.919,0.364,10.295
275147,-0.354,0.795,9.05
275208,-1.245,0.326,9.701
275267,-0.977,-0.23,9.481
275327,-0.766,-0.124,8.849
275388,-0.814,-0.096,9.615
275447,-1.111,0.0,7.719
275508,-1.293,-0.019,9.366
275568,-1.264,-0.22,9.481
275628,-0.699,0.057,8.906
275688,-0.804,0.086,10.056
275747,-0.757,0.115,9.989
275808,-0.804,0.259,11.416
275868,-0.469,0.287,11.722
275928,-0.824,0.124,10.515
275987,-0.67,0.268,11.521
276047,-1.245,0.038,10.247
276107,-1.13,-0.335,9.816
276163,-1.561,-0.048,9.491
276227,-0.919,-0.431,10.027
276287,-1.092,-0.67,9.357
276347,-0.441,0.335,9.203
276407,-0.709,0.211,8.926
276467,-0.565,-0.268,9.998
276528,-0.891,0.278,9.06
276588,-0.986,0.326,9.136
276647,-1.245,0.01,10.161
276707,-0.383,-0.163,10.257
276767,-0.891,0.421,9.548
276830,-1.35,0.105,11.013
276887,-0.948,0.0,9.404
276947,-1.255,-0.105,9.615
277007,-1.025,0.153,8.753
277068,-1.59,0.153,8.973
277127,-1.149,0.469,10.19
277188,-1.293,0.364,9.222
277247,-0.632,0.096,8.744
277307,-0.804,0.383,9.749
277368,-0.833,1.015,9.366
277427,-0.785,0.958,9.893
277488,-1.542,0.747,10.707
277543,-0.833,0.603,10.822
277603,-1.417,0.306,9.357
277668,-0.785,0.259,9.912
277727,-1.59,-0.354,10.017
277787,-0.642,0.134,9.318
277848,-0.891,-0.048,9.443
277907,-0.709,-0.565,8.973
277967,-0.421,0.0,9.385
278027,-1.111,0.163,10.314
278087,-0.594,0.22,10.985
278147,-0.68,0.316,10.496
278208,-1.034,-0.105,10.372
278268,-1.168,-0.201,10.534
278327,-0.9,0.029,10.056
278388,-0.919,0.345,9.615
278448,-0.057,0.029,8.581
278503,-0.891,0.249,10.228
278568,-0.919,0.364,9.74
278627,-1.053,-0.153,9.778
278688,-0.69,-0.144,10.506
278747,-0.67,0.278,9.615
278812,-1.053,-0.115,8.016
278867,-1.571,-0.22,9.213
